time_ms,packet_counter,timestamp_ms,imu1_acc_x,imu1_acc_y,imu1_acc_z,imu1_gyro_x,imu1_gyro_y,imu1_gyro_z,imu2_acc_x,imu2_acc_y,imu2_acc_z,imu2_gyro_x,imu2_gyro_y,imu2_gyro_z,baro1_pressure,baro1_height,baro2_pressure,baro2_height,tank_pressure,tank_temp_top,tank_temp_bottom,tank_temp_feeding,injector_pressure,injector_temp,chamber_pressure,battery_soc,battery_current,battery_voltage,state,gnss_north,gnss_east,gnss_speed,gnss_altitude
0,0,0,63,0,0,0,0,0,63,0,0,0,0,0,1013,0,1018,5,300,300,295,285,4000,350,2000,100,65,1134,2,37530,21140,701,0
100,1,100,63,0,0,0,0,0,63,0,0,0,0,0,1012,2,1018,8,300,300,295,285,4004,350,2000,99,65,1134,2,37530,21139,1403,2
200,2,200,63,0,0,0,0,0,63,0,0,0,0,0,1012,4,1019,11,300,300,295,285,4009,350,2001,99,65,1134,2,37531,21139,2104,4
300,3,300,62,0,0,0,0,0,63,0,0,0,0,0,1012,7,1020,15,300,300,295,285,4014,350,2001,99,65,1134,2,37532,21139,2803,7
400,4,400,62,0,0,0,0,0,63,0,0,0,0,0,1011,10,1020,19,300,300,295,285,4019,350,2002,99,65,1134,2,37533,21139,3500,10
500,5,500,62,0,0,0,0,0,63,0,0,0,0,0,1011,14,1021,24,300,300,295,285,4024,351,2003,99,65,1134,2,37534,21139,4194,14
600,6,600,62,0,0,0,0,0,62,0,0,0,0,0,1010,19,1021,30,300,300,295,285,4029,351,2003,99,65,1134,2,37535,21139,4885,19
700,7,700,61,0,0,0,0,0,62,0,0,0,0,0,1010,25,1022,37,300,300,295,285,4034,351,2004,99,65,1134,2,37536,21139,5573,25
799,8,799,61,0,0,0,0,0,62,0,0,0,0,0,1009,31,1022,44,300,300,295,285,4039,351,2005,99,65,1134,2,37537,21139,6256,31
899,9,899,61,0,0,0,0,0,61,0,0,0,0,0,1008,38,1022,52,300,300,295,285,4044,352,2005,99,65,1134,2,37538,21139,6934,38
999,10,999,60,0,0,0,0,0,61,0,0,0,0,0,1007,45,1022,60,300,300,295,285,4049,352,2006,99,65,1134,2,37539,21139,7606,45
1099,11,1099,59,0,0,0,0,0,60,0,0,0,0,0,1006,54,1012,60,300,300,295,285,4054,352,2007,99,65,1134,2,37540,21139,8272,54
1200,12,1200,59,0,0,0,0,0,59,0,0,0,0,0,1005,63,1012,70,300,300,295,285,4059,352,2007,99,65,1134,2,37541,21139,8932,63
1300,13,1300,58,0,0,0,0,0,59,0,0,0,0,0,1004,72,1012,80,300,300,295,285,4064,353,2008,99,65,1134,2,37542,21139,9585,72
1400,14,1400,58,0,0,0,0,0,58,0,0,0,0,0,1002,82,1011,91,300,300,295,285,4069,353,2009,99,65,1134,2,37543,21139,10231,82
1500,15,1500,57,0,0,0,0,0,57,0,0,0,0,0,1001,93,1011,103,300,300,295,285,4074,353,2009,99,65,1134,2,37544,21138,10869,93
1600,16,1600,56,0,0,0,0,0,57,0,0,0,0,0,999,105,1010,116,300,300,295,285,4079,353,2010,99,65,1134,2,37545,21138,11498,105
1700,17,1700,55,0,0,0,0,0,56,0,0,0,0,0,998,117,1010,129,300,300,295,285,4084,354,2011,99,65,1134,2,37546,21138,12119,117
1800,18,1800,55,0,0,0,0,0,55,0,0,0,0,0,996,130,1009,143,300,300,295,285,4089,354,2011,99,65,1134,2,37547,21138,12731,130
1900,19,1900,54,0,0,0,0,0,54,0,0,0,0,0,995,143,1009,157,300,300,295,285,4094,354,2012,99,65,1134,2,37548,21138,13334,143
2000,20,2000,53,0,0,0,0,0,53,0,0,0,0,0,993,157,998,162,300,300,295,285,4099,354,2013,99,65,1134,2,37549,21138,13927,157
2100,21,2100,52,0,0,0,0,0,52,0,0,0,0,0,991,171,997,177,300,300,295,285,4104,355,2013,99,65,1134,2,37550,21137,14510,171
2200,22,2200,51,0,0,0,0,0,52,0,0,0,0,0,989,187,996,194,300,300,295,285,4109,355,2014,99,65,1134,2,37551,21137,15083,187
2300,23,2300,50,0,0,0,0,0,51,0,0,0,0,0,987,202,995,210,300,300,295,285,4113,355,2015,99,65,1134,2,37552,21137,15645,202
2400,24,2400,49,0,0,0,0,0,50,0,0,0,0,0,985,218,994,227,300,300,295,285,4118,355,2015,99,65,1134,2,37553,21137,16197,218
2500,25,2500,48,0,0,0,0,0,49,0,0,0,0,0,983,235,993,245,300,300,295,285,4123,356,2016,99,65,1134,2,37554,21136,16739,235
2600,26,2600,47,0,0,0,0,0,48,0,0,0,0,0,981,252,992,263,300,300,295,285,4128,356,2017,99,65,1134,2,37555,21136,17269,252
2700,27,2700,46,0,0,0,0,0,47,0,0,0,0,0,979,270,991,282,300,300,295,285,4133,356,2017,99,65,1134,2,37556,21136,17788,270
2800,28,2800,45,0,0,0,0,0,46,0,0,0,0,0,977,289,990,302,300,300,295,285,4138,356,2018,99,65,1134,2,37557,21136,18296,289
2900,29,2900,44,0,0,0,0,0,45,0,0,0,0,0,975,307,989,321,300,300,295,285,4142,357,2019,99,65,1134,2,37558,21135,18793,307
3000,30,3000,43,0,0,0,0,0,44,0,0,0,0,0,972,327,977,332,300,300,295,285,4147,357,2019,99,65,1134,2,37559,21135,19279,327
3100,31,3100,42,0,0,0,0,0,43,0,0,0,0,0,970,346,976,352,301,301,296,286,4152,357,2020,98,65,1134,2,37560,21135,19753,346
3200,32,3200,41,0,0,0,0,0,42,0,0,0,0,0,967,367,974,374,301,301,296,286,4157,357,2021,98,65,1134,2,37561,21134,20216,367
3300,33,3300,40,0,0,0,0,0,41,0,0,0,0,0,965,387,973,395,301,301,296,286,4162,358,2021,98,65,1134,2,37562,21134,20667,387
3400,34,3400,39,0,0,0,0,0,39,0,0,0,0,0,962,408,971,417,301,301,296,286,4166,358,2022,98,65,1134,2,37563,21134,21108,408
3500,35,3500,38,0,0,0,0,0,38,0,0,0,0,0,960,430,970,440,301,301,296,286,4171,358,2023,98,65,1134,2,37564,21133,21537,430
3600,36,3600,37,0,0,0,0,0,37,0,0,0,0,0,957,452,968,463,301,301,296,286,4176,358,2023,98,65,1134,2,37565,21133,21954,452
3700,37,3700,36,0,0,0,0,0,37,0,0,0,0,0,954,474,966,486,301,301,296,286,4180,359,2024,98,65,1134,2,37566,21133,22361,474
3800,38,3800,35,0,0,0,0,0,36,0,0,0,0,0,952,497,965,510,301,301,296,286,4185,359,2025,98,65,1134,2,37567,21132,22757,497
3900,39,3900,34,0,0,0,0,0,35,0,0,0,0,0,949,520,963,534,301,301,296,286,4190,359,2025,98,65,1134,2,37568,21132,23141,520
4000,40,4000,33,0,0,0,0,0,33,0,0,0,0,0,946,544,951,549,301,301,296,286,4194,359,2026,98,65,1134,2,37568,21132,23515,544
4100,41,4100,32,0,0,0,0,0,32,0,0,0,0,0,943,567,949,573,301,301,296,286,4199,360,2026,98,65,1134,2,37569,21131,23878,567
4200,42,4200,31,0,0,0,0,0,31,0,0,0,0,0,940,592,947,599,301,301,296,286,4203,360,2027,98,65,1134,2,37570,21131,24231,592
4300,43,4300,30,0,0,0,0,0,31,0,0,0,0,0,938,616,946,624,301,301,296,286,4208,360,2028,98,65,1134,2,37571,21130,24573,616
4400,44,4400,29,0,0,0,0,0,30,0,0,0,0,0,935,641,944,650,301,301,296,286,4212,360,2028,98,65,1134,2,37572,21130,24905,641
4500,45,4500,28,0,0,0,0,0,29,0,0,0,0,0,932,666,942,676,301,301,296,286,4217,361,2029,98,65,1134,2,37573,21130,25227,666
4600,46,4600,28,0,0,0,0,0,28,0,0,0,0,0,929,692,940,703,301,301,296,286,4221,361,2030,98,65,1134,2,37574,21129,25539,692
4699,47,4699,27,0,0,0,0,0,27,0,0,0,0,0,926,718,938,730,301,301,296,286,4226,361,2030,98,65,1134,2,37575,21129,25842,718
4799,48,4799,26,0,0,0,0,0,26,0,0,0,0,0,923,744,936,757,301,301,296,286,4230,361,2031,98,65,1134,2,37576,21128,26135,744
4899,49,4899,25,0,0,0,0,0,25,0,0,0,0,0,920,770,934,784,301,301,296,286,4235,362,2032,98,65,1134,2,37577,21128,26418,770
4999,50,4999,24,0,0,0,0,0,25,0,0,0,0,0,917,797,932,812,301,301,296,286,4239,362,2032,98,65,1134,2,37577,21127,26693,797
5099,51,5099,23,0,0,0,0,0,24,0,0,0,0,0,914,824,920,830,301,301,296,286,4244,362,2033,98,65,1134,2,37578,21127,26958,824
5199,52,5199,23,0,0,0,0,0,23,0,0,0,0,0,910,851,917,858,301,301,296,286,4248,362,2033,98,65,1134,2,37579,21126,27215,851
5299,53,5299,22,0,0,0,0,0,22,0,0,0,0,0,907,879,915,887,301,301,296,286,4252,363,2034,98,65,1134,2,37580,21126,27463,879
5399,54,5399,21,0,0,0,0,0,21,0,0,0,0,0,904,906,913,915,301,301,296,286,4257,363,2035,98,65,1134,2,37581,21125,27703,906
5499,55,5499,20,0,0,0,0,0,21,0,0,0,0,0,901,934,911,944,301,301,296,286,4261,363,2035,98,65,1134,2,37582,21125,27935,934
5599,56,5599,20,0,0,0,0,0,20,0,0,0,0,0,898,962,909,973,301,301,296,286,4265,363,2036,98,65,1134,2,37583,21124,28159,962
5699,57,5699,19,0,0,0,0,0,19,0,0,0,0,0,895,991,907,1003,301,301,296,286,4269,364,2037,98,65,1134,2,37583,21124,28375,991
5799,58,5799,18,0,0,0,0,0,19,0,0,0,0,0,891,1019,904,1032,301,301,296,286,4274,364,2037,98,65,1134,2,37584,21123,28584,1019
5899,59,5899,18,0,0,0,0,0,18,0,0,0,0,0,888,1048,902,1062,301,301,296,286,4278,364,2038,98,65,1134,2,37585,21123,28785,1048
5999,60,5999,17,0,0,0,0,0,17,0,0,0,0,0,885,1077,900,1092,301,301,296,286,4282,364,2038,98,65,1134,2,37586,21122,28980,1077
6099,61,6099,16,0,0,0,0,0,16,0,0,0,0,0,882,1106,888,1112,302,302,297,287,4286,365,2039,97,65,1134,2,37587,21121,29167,1106
6199,62,6199,16,0,0,0,0,0,16,0,0,0,0,0,879,1136,885,1143,302,302,297,287,4290,365,2040,97,65,1134,2,37588,21121,29348,1136
6299,63,6299,15,0,0,0,0,0,15,0,0,0,0,0,875,1165,882,1173,302,302,297,287,4294,365,2040,97,65,1134,2,37588,21120,29522,1165
6399,64,6399,15,0,0,0,0,0,15,0,0,0,0,0,872,1195,880,1204,302,302,297,287,4298,365,2041,97,65,1134,2,37589,21120,29690,1195
6499,65,6499,14,0,0,0,0,0,14,0,0,0,0,0,869,1225,878,1235,302,302,297,287,4302,365,2041,97,65,1134,2,37590,21119,29852,1225
6599,66,6599,14,0,0,0,0,0,14,0,0,0,0,0,866,1255,876,1266,302,302,297,287,4306,366,2042,97,65,1134,2,37591,21118,30008,1255
6699,67,6699,13,0,0,0,0,0,13,0,0,0,0,0,862,1285,873,1297,302,302,297,287,4310,366,2043,97,65,1134,2,37592,21118,30159,1285
6799,68,6799,13,0,0,0,0,0,13,0,0,0,0,0,859,1315,871,1328,302,302,297,287,4314,366,2043,97,65,1134,2,37592,21117,30303,1315
6899,69,6899,12,0,0,0,0,0,12,0,0,0,0,0,856,1346,869,1360,302,302,297,287,4318,366,2044,97,65,1134,2,37593,21117,30443,1346
6999,70,6999,12,0,0,0,0,0,12,0,0,0,0,0,853,1376,867,1391,302,302,297,287,4322,367,2044,97,65,1134,2,37594,21116,30577,1376
7099,71,7099,11,0,0,0,0,0,11,0,0,0,0,0,849,1407,854,1413,302,302,297,287,4325,367,2045,97,65,1134,2,37595,21115,30706,1407
7199,72,7199,11,0,0,0,0,0,11,0,0,0,0,0,846,1438,852,1445,302,302,297,287,4329,367,2046,97,65,1134,2,37595,21115,30831,1438
7299,73,7299,10,0,0,0,0,0,10,0,0,0,0,0,843,1469,850,1477,302,302,297,287,4333,367,2046,97,65,1134,2,37596,21114,30950,1469
7399,74,7399,10,0,0,0,0,0,10,0,0,0,0,0,839,1500,847,1509,302,302,297,287,4337,368,2047,97,65,1134,2,37597,21113,31065,1500
7499,75,7499,9,0,0,0,0,0,10,0,0,0,0,0,836,1531,845,1541,302,302,297,287,4340,368,2047,97,65,1134,2,37598,21113,31176,1531
7599,76,7599,9,0,0,0,0,0,9,0,0,0,0,0,833,1562,843,1573,302,302,297,287,4344,368,2048,97,65,1134,2,37598,21112,31283,1562
7699,77,7699,9,0,0,0,0,0,9,0,0,0,0,0,830,1594,841,1606,302,302,297,287,4348,368,2049,97,65,1134,2,37599,21111,31385,1594
7799,78,7799,8,0,0,0,0,0,9,0,0,0,0,0,826,1625,838,1637,302,302,297,287,4351,369,2049,97,65,1134,2,37600,21111,31484,1625
7899,79,7899,8,0,0,0,0,0,8,0,0,0,0,0,823,1657,836,1670,302,302,297,287,4355,369,2050,97,65,1134,2,37601,21110,31579,1657
7999,80,7999,8,0,0,0,0,0,8,0,0,0,0,0,820,1688,834,1702,302,302,297,287,4358,369,2050,97,65,1134,2,37601,21109,31670,1688
8099,81,8099,7,0,0,0,0,0,7,0,0,0,0,0,817,1720,822,1725,302,302,297,287,4362,369,2051,97,65,1134,2,37602,21108,31757,1720
8199,82,8199,7,0,0,0,0,0,7,0,0,0,0,0,813,1752,819,1758,302,302,297,287,4365,369,2051,97,65,1134,2,37603,21108,31841,1752
8299,83,8299,7,0,0,0,0,0,7,0,0,0,0,0,810,1784,817,1791,302,302,297,287,4368,370,2052,97,65,1134,2,37603,21107,31922,1784
8399,84,8399,6,0,0,0,0,0,7,0,0,0,0,0,807,1816,815,1824,302,302,297,287,4372,370,2053,97,65,1134,2,37604,21106,32000,1816
8499,85,8499,6,0,0,0,0,0,6,0,0,0,0,0,804,1848,813,1857,302,302,297,287,4375,370,2053,97,65,1134,2,37605,21105,32075,1848
8599,86,8599,6,0,0,0,0,0,6,0,0,0,0,0,800,1880,810,1890,302,302,297,287,4378,370,2054,97,65,1134,2,37605,21105,32146,1880
8699,87,8699,6,0,0,0,0,0,6,0,0,0,0,0,797,1912,808,1923,302,302,297,287,4382,371,2054,97,65,1134,2,37606,21104,32215,1912
8799,88,8799,6,0,0,0,0,0,6,0,0,0,0,0,794,1945,806,1957,302,302,297,287,4385,371,2055,97,65,1134,2,37607,21103,32282,1945
8899,89,8899,5,0,0,0,0,0,5,0,0,0,0,0,791,1977,804,1990,302,302,297,287,4388,371,2055,97,65,1134,2,37607,21102,32345,1977
8999,90,8999,5,0,0,0,0,0,5,0,0,0,0,0,788,2009,802,2023,302,302,297,287,4391,371,2056,97,65,1134,2,37608,21102,32406,2009
9099,91,9099,5,0,0,0,0,0,5,0,0,0,0,0,784,2042,789,2047,302,302,297,287,4394,371,2057,96,65,1134,2,37608,21101,32465,2042
9199,92,9199,5,0,0,0,0,0,5,0,0,0,0,0,781,2074,787,2081,303,303,298,288,4397,372,2057,96,65,1134,2,37609,21100,32521,2074
9299,93,9299,4,0,0,0,0,0,4,0,0,0,0,0,778,2107,785,2115,303,303,298,288,4400,372,2058,96,65,1134,2,37610,21099,32575,2107
9399,94,9399,4,0,0,0,0,0,4,0,0,0,0,0,775,2140,783,2149,303,303,298,288,4403,372,2058,96,65,1134,2,37610,21098,32627,2140
9499,95,9499,4,0,0,0,0,0,4,0,0,0,0,0,772,2172,781,2182,303,303,298,288,4406,372,2059,96,65,1134,2,37611,21098,32677,2172
9599,96,9599,4,0,0,0,0,0,4,0,0,0,0,0,769,2205,779,2216,303,303,298,288,4409,373,2059,96,65,1134,2,37611,21097,32725,2205
9699,97,9699,4,0,0,0,0,0,4,0,0,0,0,0,765,2238,776,2250,303,303,298,288,4412,373,2060,96,65,1134,2,37612,21096,32771,2238
9799,98,9799,4,0,0,0,0,0,4,0,0,0,0,0,762,2271,774,2284,303,303,298,288,4415,373,2060,96,65,1134,2,37613,21095,32815,2271
9899,99,9899,3,0,0,0,0,0,3,0,0,0,0,0,759,2303,772,2317,303,303,298,288,4418,373,2061,96,65,1134,2,37613,21094,32857,2303
9999,100,9999,3,0,0,0,0,0,3,0,0,0,0,0,756,2336,770,2351,303,303,298,288,4420,373,2061,96,65,1134,2,37614,21094,32898,2336
10099,101,10099,3,0,0,0,0,0,3,0,0,0,0,0,753,2369,758,2375,303,303,298,288,4423,374,2062,96,65,1134,2,37614,21093,32937,2369
10199,102,10199,3,0,0,0,0,0,3,0,0,0,0,0,750,2402,756,2409,303,303,298,288,4426,374,2062,96,65,1134,2,37615,21092,32974,2402
10299,103,10299,3,0,0,0,0,0,3,0,0,0,0,0,747,2435,754,2443,303,303,298,288,4428,374,2063,96,65,1134,2,37615,21091,33010,2435
10399,104,10399,3,0,0,0,0,0,3,0,0,0,0,0,744,2468,752,2477,303,303,298,288,4431,374,2063,96,65,1134,2,37616,21090,33045,2468
10499,105,10499,2,0,0,0,0,0,3,0,0,0,0,0,741,2501,750,2511,303,303,298,288,4433,375,2064,96,65,1134,2,37616,21089,33078,2501
10599,106,10599,2,0,0,0,0,0,2,0,0,0,0,0,738,2534,748,2545,303,303,298,288,4436,375,2064,96,65,1134,2,37617,21088,33109,2534
10699,107,10699,2,0,0,0,0,0,2,0,0,0,0,0,735,2568,746,2580,303,303,298,288,4438,375,2065,96,65,1134,2,37617,21088,33140,2568
10799,108,10799,2,0,0,0,0,0,2,0,0,0,0,0,731,2601,743,2614,303,303,298,288,4440,375,2065,96,65,1134,2,37618,21087,33169,2601
10899,109,10899,2,0,0,0,0,0,2,0,0,0,0,0,728,2634,741,2648,303,303,298,288,4443,375,2066,96,65,1134,2,37618,21086,33197,2634
10999,110,10999,2,0,0,0,0,0,2,0,0,0,0,0,725,2667,739,2681,303,303,298,288,4445,376,2066,96,65,1134,2,37619,21085,33224,2667
11099,111,11099,2,0,0,0,0,0,2,0,0,0,0,0,722,2700,727,2705,303,303,298,288,4447,376,2067,96,65,1134,2,37619,21084,33250,2700
11199,112,11199,2,0,0,0,0,0,2,0,0,0,0,0,719,2734,725,2740,303,303,298,288,4450,376,2067,96,65,1134,2,37620,21083,33274,2734
11299,113,11299,2,0,0,0,0,0,2,0,0,0,0,0,716,2767,723,2774,303,303,298,288,4452,376,2068,96,65,1134,2,37620,21082,33298,2767
11399,114,11399,2,0,0,0,0,0,2,0,0,0,0,0,713,2800,721,2808,303,303,298,288,4454,376,2068,96,65,1134,2,37620,21081,33321,2800
11499,115,11499,1,0,0,0,0,0,1,0,0,0,0,0,710,2834,719,2843,303,303,298,288,4456,377,2069,96,65,1134,2,37621,21080,33343,2834
11599,116,11599,1,0,0,0,0,0,1,0,0,0,0,0,708,2867,718,2877,303,303,298,288,4458,377,2069,96,65,1134,2,37621,21079,33364,2867
11699,117,11699,1,0,0,0,0,0,1,0,0,0,0,0,705,2900,716,2911,303,303,298,288,4460,377,2070,96,65,1134,2,37622,21079,33384,2900
11799,118,11799,1,0,0,0,0,0,1,0,0,0,0,0,702,2934,714,2946,303,303,298,288,4462,377,2070,96,65,1134,2,37622,21078,33403,2934
11899,119,11899,1,0,0,0,0,0,1,0,0,0,0,0,699,2967,712,2980,303,303,298,288,4464,378,2071,96,65,1134,2,37622,21077,33422,2967
11999,120,11999,1,0,0,0,0,0,1,0,0,0,0,0,696,3001,710,3015,303,303,298,288,4466,378,2071,96,65,1134,2,37623,21076,33439,3001
12099,121,12099,1,0,0,0,0,0,1,0,0,0,0,0,693,3034,698,3039,303,303,298,288,4467,378,2072,95,65,1134,2,37623,21075,33456,3034
12199,122,12199,1,0,0,0,0,0,1,0,0,0,0,0,690,3068,696,3074,303,303,298,288,4469,378,2072,95,65,1134,2,37623,21074,33473,3068
12299,123,12299,1,0,0,0,0,0,1,0,0,0,0,0,687,3101,694,3108,303,303,298,288,4471,378,2073,95,65,1134,2,37624,21073,33488,3101
12399,124,12399,1,0,0,0,0,0,1,0,0,0,0,0,684,3135,692,3143,304,304,299,289,4472,379,2073,95,65,1134,2,37624,21072,33503,3135
12499,125,12499,1,0,0,0,0,0,1,0,0,0,0,0,681,3168,690,3177,304,304,299,289,4474,379,2074,95,65,1134,2,37624,21071,33518,3168
12599,126,12599,1,0,0,0,0,0,1,0,0,0,0,0,679,3202,689,3212,304,304,299,289,4476,379,2074,95,65,1134,2,37625,21070,33531,3202
12699,127,12699,1,0,0,0,0,0,1,0,0,0,0,0,676,3235,687,3246,304,304,299,289,4477,379,2074,95,65,1134,2,37625,21069,33545,3235
12799,128,12799,1,0,0,0,0,0,1,0,0,0,0,0,673,3269,685,3281,304,304,299,289,4479,379,2075,95,65,1134,2,37625,21068,33557,3269
12899,129,12899,1,0,0,0,0,0,1,0,0,0,0,0,670,3302,683,3315,304,304,299,289,4480,380,2075,95,65,1134,2,37626,21067,33569,3302
12999,130,12999,1,0,0,0,0,0,1,0,0,0,0,0,667,3336,681,3350,304,304,299,289,4481,380,2076,95,65,1134,2,37626,21066,33581,3336
13099,131,13099,0,0,0,0,0,0,0,0,0,0,0,0,664,3370,669,3375,304,304,299,289,4483,380,2076,95,65,1134,2,37626,21065,33592,3370
13199,132,13199,0,0,0,0,0,0,0,0,0,0,0,0,662,3403,668,3409,304,304,299,289,4484,380,2077,95,65,1134,2,37626,21064,33603,3403
13299,133,13299,0,0,0,0,0,0,0,0,0,0,0,0,659,3437,666,3444,304,304,299,289,4485,380,2077,95,65,1134,2,37627,21063,33613,3437
13399,134,13399,0,0,0,0,0,0,0,0,0,0,0,0,656,3470,664,3478,304,304,299,289,4486,381,2077,95,65,1134,2,37627,21062,33623,3470
13499,135,13499,0,0,0,0,0,0,0,0,0,0,0,0,653,3504,662,3513,304,304,299,289,4487,381,2078,95,65,1134,2,37627,21061,33632,3504
13599,136,13599,0,0,0,0,0,0,0,0,0,0,0,0,651,3538,661,3548,304,304,299,289,4488,381,2078,95,65,1134,2,37627,21060,33642,3538
13699,137,13699,0,0,0,0,0,0,0,0,0,0,0,0,648,3571,659,3582,304,304,299,289,4489,381,2079,95,65,1134,2,37627,21059,33650,3571
13799,138,13799,0,0,0,0,0,0,0,0,0,0,0,0,645,3605,657,3617,304,304,299,289,4490,381,2079,95,65,1134,2,37628,21058,33659,3605
13899,139,13899,0,0,0,0,0,0,0,0,0,0,0,0,642,3639,655,3652,304,304,299,289,4491,382,2079,95,65,1134,2,37628,21057,33667,3639
13999,140,13999,0,0,0,0,0,0,0,0,0,0,0,0,640,3672,654,3686,304,304,299,289,4492,382,2080,95,65,1134,2,37628,21056,33674,3672
14099,141,14099,0,0,0,0,0,0,0,0,0,0,0,0,637,3706,642,3711,304,304,299,289,4493,382,2080,95,65,1134,2,37628,21056,33681,3706
14199,142,14199,0,0,0,0,0,0,0,0,0,0,0,0,634,3740,640,3746,304,304,299,289,4494,382,2081,95,65,1134,2,37628,21055,33689,3740
14299,143,14299,0,0,0,0,0,0,0,0,0,0,0,0,632,3773,639,3780,304,304,299,289,4495,382,2081,95,65,1134,2,37629,21054,33695,3773
14399,144,14399,0,0,0,0,0,0,0,0,0,0,0,0,629,3807,637,3815,304,304,299,289,4495,382,2081,95,65,1134,2,37629,21053,33702,3807
14499,145,14499,0,0,0,0,0,0,0,0,0,0,0,0,626,3841,635,3850,304,304,299,289,4496,383,2082,95,65,1134,2,37629,21052,33708,3841
14599,146,14599,0,0,0,0,0,0,0,0,0,0,0,0,624,3875,634,3885,304,304,299,289,4496,383,2082,95,65,1134,2,37629,21051,33714,3875
14699,147,14699,0,0,0,0,0,0,0,0,0,0,0,0,621,3908,632,3919,304,304,299,289,4497,383,2083,95,65,1134,2,37629,21050,33720,3908
14799,148,14799,0,0,0,0,0,0,0,0,0,0,0,0,619,3942,631,3954,304,304,299,289,4497,383,2083,95,65,1134,2,37629,21049,33725,3942
14899,149,14899,0,0,0,0,0,0,0,0,0,0,0,0,616,3976,629,3989,304,304,299,289,4498,383,2083,95,65,1134,2,37629,21048,33730,3976
14999,150,14999,0,0,0,0,0,0,0,0,0,0,0,0,613,4009,627,4023,304,304,299,289,4498,384,2084,95,65,1134,2,37629,21047,33735,4009
15099,151,15099,0,0,0,0,0,0,0,0,0,0,0,0,611,4043,616,4048,304,304,299,289,4499,384,2084,94,65,1134,2,37629,21046,33740,4043
15199,152,15199,0,0,0,0,0,0,0,0,0,0,0,0,608,4077,614,4083,304,304,299,289,4499,384,2084,94,65,1134,2,37629,21045,33745,4077
15299,153,15299,0,0,0,0,0,0,0,0,0,0,0,0,606,4111,613,4119,304,304,299,289,4499,384,2085,94,65,1134,2,37629,21044,33749,4111
15399,154,15399,0,0,0,0,0,0,0,0,0,0,0,0,603,4144,611,4153,304,304,299,289,4499,384,2085,94,65,1134,2,37629,21043,33753,4144
15499,155,15499,0,0,0,0,0,0,0,0,0,0,0,0,600,4178,609,4188,304,304,299,289,4499,384,2085,94,65,1134,2,37629,21042,33757,4178
15599,156,15599,0,0,0,0,0,0,0,0,0,0,0,0,598,4212,608,4223,304,304,299,289,4499,385,2086,94,65,1134,2,37629,21041,33761,4212
15699,157,15699,0,0,0,0,0,0,0,0,0,0,0,0,595,4246,606,4258,304,304,299,289,4499,385,2086,94,65,1134,2,37629,21040,33765,4246
15799,158,15799,0,0,0,0,0,0,0,0,0,0,0,0,593,4279,605,4292,305,305,300,290,4499,385,2086,94,65,1134,2,37629,21039,33769,4279
15899,159,15899,0,0,0,0,0,0,0,0,0,0,0,0,590,4313,603,4327,305,305,300,290,4499,385,2087,94,65,1134,2,37629,21038,33772,4313
15999,160,15999,0,0,0,0,0,0,0,0,0,0,0,0,588,4347,602,4362,305,305,300,290,4499,385,2087,94,65,1134,2,37629,21037,33775,4347
16099,161,16099,0,0,0,0,0,0,0,0,0,0,0,0,585,4381,590,4387,305,305,300,290,4499,386,2087,94,65,1134,2,37629,21036,33779,4381
16199,162,16199,0,0,0,0,0,0,0,0,0,0,0,0,583,4415,589,4422,305,305,300,290,4499,386,2088,94,65,1134,2,37629,21035,33782,4415
16299,163,16299,0,0,0,0,0,0,0,0,0,0,0,0,581,4448,588,4456,305,305,300,290,4499,386,2088,94,65,1134,2,37629,21034,33784,4448
16399,164,16399,0,0,0,0,0,0,0,0,0,0,0,0,578,4482,586,4491,305,305,300,290,4498,386,2088,94,65,1134,2,37629,21033,33787,4482
16499,165,16499,0,0,0,0,0,0,0,0,0,0,0,0,576,4516,585,4526,305,305,300,290,4498,386,2089,94,65,1134,2,37629,21032,33790,4516
16599,166,16599,0,0,0,0,0,0,0,0,0,0,0,0,573,4550,583,4561,305,305,300,290,4498,386,2089,94,65,1134,2,37629,21031,33792,4550
16699,167,16699,0,0,0,0,0,0,0,0,0,0,0,0,571,4584,582,4596,305,305,300,290,4497,387,2089,94,65,1134,2,37629,21030,33795,4584
16799,168,16799,0,0,0,0,0,0,0,0,0,0,0,0,568,4617,580,4630,305,305,300,290,4497,387,2090,94,65,1134,2,37629,21029,33797,4617
16899,169,16899,0,0,0,0,0,0,0,0,0,0,0,0,566,4651,579,4665,305,305,300,290,4496,387,2090,94,65,1134,2,37629,21028,33799,4651
16999,170,16999,0,0,0,0,0,0,0,0,0,0,0,0,564,4685,578,4700,305,305,300,290,4495,387,2090,94,65,1134,2,37629,21027,33802,4685
17099,171,17099,0,0,0,0,0,0,0,0,0,0,0,0,561,4719,566,4725,305,305,300,290,4495,387,2090,94,65,1134,2,37629,21026,33804,4719
17199,172,17199,0,0,0,0,0,0,0,0,0,0,0,0,559,4753,565,4760,305,305,300,290,4494,387,2091,94,65,1134,2,37628,21025,33806,4753
17299,173,17299,0,0,0,0,0,0,0,0,0,0,0,0,556,4786,563,4794,305,305,300,290,4493,388,2091,94,65,1134,2,37628,21024,33808,4786
17399,174,17399,0,0,0,0,0,0,0,0,0,0,0,0,554,4820,562,4829,305,305,300,290,4492,388,2091,94,65,1134,2,37628,21023,33809,4820
17499,175,17499,0,0,0,0,0,0,0,0,0,0,0,0,552,4854,561,4864,305,305,300,290,4491,388,2091,94,65,1134,2,37628,21022,33811,4854
17599,176,17599,0,0,0,0,0,0,0,0,0,0,0,0,549,4888,559,4899,305,305,300,290,4491,388,2092,94,65,1134,2,37628,21021,33813,4888
17699,177,17699,0,0,0,0,0,0,0,0,0,0,0,0,547,4922,558,4934,305,305,300,290,4490,388,2092,94,65,1134,2,37628,21020,33814,4922
17799,178,17799,0,0,0,0,0,0,0,0,0,0,0,0,545,4955,557,4968,305,305,300,290,4489,388,2092,94,65,1134,2,37627,21019,33816,4955
17899,179,17899,0,0,0,0,0,0,0,0,0,0,0,0,543,4989,556,5003,305,305,300,290,4488,389,2092,94,65,1134,2,37627,21018,33817,4989
17999,180,17999,0,0,0,0,0,0,0,0,0,0,0,0,540,5023,554,5038,305,305,300,290,4486,389,2093,94,65,1134,2,37627,21017,33819,5023
18099,181,18099,0,0,0,0,0,0,0,0,0,0,0,0,538,5057,543,5063,305,305,300,290,4485,389,2093,93,65,1134,2,37627,21016,33820,5057
18199,182,18199,0,0,0,0,0,0,0,0,0,0,0,0,536,5091,542,5098,305,305,300,290,4484,389,2093,93,65,1134,2,37626,21015,33822,5091
18299,183,18299,0,0,0,0,0,0,0,0,0,0,0,0,533,5125,540,5133,305,305,300,290,4483,389,2093,93,65,1134,2,37626,21014,33823,5125
18399,184,18399,0,0,0,0,0,0,0,0,0,0,0,0,531,5158,539,5167,305,305,300,290,4481,389,2094,93,65,1134,2,37626,21013,33824,5158
18499,185,18499,0,0,0,0,0,0,0,0,0,0,0,0,529,5192,538,5202,305,305,300,290,4480,389,2094,93,65,1134,2,37626,21012,33825,5192
18599,186,18599,0,0,0,0,0,0,0,0,0,0,0,0,527,5226,538,5237,305,305,300,290,4479,390,2094,93,65,1134,2,37625,21011,33826,5226
18699,187,18699,0,0,0,0,0,0,0,0,0,0,0,0,524,5260,536,5272,305,305,300,290,4477,390,2094,93,65,1134,2,37625,21010,33827,5260
18799,188,18799,0,0,0,0,0,0,0,0,0,0,0,0,522,5294,535,5307,305,305,300,290,4476,390,2095,93,65,1134,2,37625,21009,33828,5294
18900,189,18900,0,0,0,0,0,0,0,0,0,0,0,0,520,5327,534,5341,305,305,300,290,4474,390,2095,93,65,1134,2,37624,21008,33829,5327
19000,190,19000,0,0,0,0,0,0,0,0,0,0,0,0,518,5361,523,5366,305,305,300,290,4473,390,2095,93,65,1134,2,37624,21007,33830,5361
19100,191,19100,0,0,0,0,0,0,0,0,0,0,0,0,516,5395,522,5401,305,305,300,290,4471,390,2095,93,65,1134,2,37624,21006,33831,5395
19200,192,19200,0,0,0,0,0,0,0,0,0,0,0,0,514,5429,521,5436,305,305,300,290,4469,390,2095,93,65,1134,2,37623,21005,33832,5429
19300,193,19300,0,0,0,0,0,0,0,0,0,0,0,0,511,5463,519,5471,305,305,300,290,4468,391,2095,93,65,1134,2,37623,21004,33833,5463
19400,194,19400,0,0,0,0,0,0,0,0,0,0,0,0,509,5497,518,5506,306,306,301,291,4466,391,2096,93,65,1134,2,37623,21003,33833,5497
19500,195,19500,0,0,0,0,0,0,0,0,0,0,0,0,507,5530,517,5540,306,306,301,291,4464,391,2096,93,65,1134,2,37622,21002,33834,5530
19600,196,19600,0,0,0,0,0,0,0,0,0,0,0,0,505,5564,516,5575,306,306,301,291,4462,391,2096,93,65,1134,2,37622,21002,33835,5564
19700,197,19700,0,0,0,0,0,0,0,0,0,0,0,0,503,5598,515,5610,306,306,301,291,4460,391,2096,93,65,1134,2,37622,21001,33836,5598
19800,198,19800,0,0,0,0,0,0,0,0,0,0,0,0,501,5632,514,5645,306,306,301,291,4458,391,2096,93,65,1134,2,37621,21000,33836,5632
19900,199,19900,0,0,0,0,0,0,0,0,0,0,0,0,499,5666,513,5680,306,306,301,291,4456,391,2097,93,65,1134,2,37621,20999,33837,5666
20000,200,20000,0,0,0,0,0,0,0,0,0,0,0,0,496,5700,501,5705,306,306,301,291,4454,392,2097,93,65,1134,2,37620,20998,33838,5700
20100,201,20100,0,0,0,0,0,0,0,0,0,0,0,0,494,5733,500,5739,306,306,301,291,4452,392,2097,93,65,1134,2,37620,20997,33838,5733
20200,202,20200,0,0,0,0,0,0,0,0,0,0,0,0,492,5767,499,5774,306,306,301,291,4450,392,2097,93,65,1134,2,37620,20996,33839,5767
20300,203,20300,0,0,0,0,0,0,0,0,0,0,0,0,490,5801,498,5809,306,306,301,291,4448,392,2097,93,65,1134,2,37619,20995,33839,5801
20400,204,20400,0,0,0,0,0,0,0,0,0,0,0,0,488,5835,497,5844,306,306,301,291,4445,392,2097,93,65,1134,2,37619,20994,33840,5835
20500,205,20500,0,0,0,0,0,0,0,0,0,0,0,0,486,5869,496,5879,306,306,301,291,4443,392,2097,93,65,1134,2,37618,20993,33840,5869
20600,206,20600,0,0,0,0,0,0,0,0,0,0,0,0,484,5903,495,5914,306,306,301,291,4441,392,2098,93,65,1134,2,37618,20993,33841,5903
20700,207,20700,0,0,0,0,0,0,0,0,0,0,0,0,482,5937,494,5949,306,306,301,291,4438,392,2098,93,65,1134,2,37617,20992,33841,5937
20800,208,20800,0,0,0,0,0,0,0,0,0,0,0,0,480,5970,493,5983,306,306,301,291,4436,393,2098,93,65,1134,2,37617,20991,33842,5970
20900,209,20900,0,0,0,0,0,0,0,0,0,0,0,0,478,6004,492,6018,306,306,301,291,4434,393,2098,93,65,1134,2,37616,20990,33842,6004
21000,210,21000,0,0,0,0,0,0,0,0,0,0,0,0,476,6038,481,6043,306,306,301,291,4431,393,2098,92,65,1134,2,37616,20989,33842,6038
21100,211,21100,0,0,0,0,0,0,0,0,0,0,0,0,474,6072,480,6078,306,306,301,291,4429,393,2098,92,65,1134,2,37615,20988,33843,6072
21200,212,21200,0,0,0,0,0,0,0,0,0,0,0,0,472,6106,479,6113,306,306,301,291,4426,393,2098,92,65,1134,2,37615,20987,33843,6106
21300,213,21300,0,0,0,0,0,0,0,0,0,0,0,0,470,6140,478,6148,306,306,301,291,4423,393,2098,92,65,1134,2,37614,20986,33843,6140
21400,214,21400,0,0,0,0,0,0,0,0,0,0,0,0,468,6173,477,6182,306,306,301,291,4421,393,2098,92,65,1134,2,37614,20986,33844,6173
21500,215,21500,0,0,0,0,0,0,0,0,0,0,0,0,466,6207,476,6217,306,306,301,291,4418,393,2099,92,65,1134,2,37613,20985,33844,6207
21600,216,21600,0,0,0,0,0,0,0,0,0,0,0,0,464,6241,475,6252,306,306,301,291,4415,394,2099,92,65,1134,2,37613,20984,33844,6241
21700,217,21700,0,0,0,0,0,0,0,0,0,0,0,0,462,6275,474,6287,306,306,301,291,4412,394,2099,92,65,1134,2,37612,20983,33845,6275
21800,218,21800,0,0,0,0,0,0,0,0,0,0,0,0,460,6309,473,6322,306,306,301,291,4410,394,2099,92,65,1134,2,37612,20982,33845,6309
21900,219,21900,0,0,0,0,0,0,0,0,0,0,0,0,458,6343,472,6357,306,306,301,291,4407,394,2099,92,65,1134,2,37611,20981,33845,6343
22000,220,22000,0,0,0,0,0,0,0,0,0,0,0,0,456,6377,461,6382,306,306,301,291,4404,394,2099,92,65,1134,2,37610,20981,33846,6377
22100,221,22100,0,0,0,0,0,0,0,0,0,0,0,0,454,6410,460,6416,306,306,301,291,4401,394,2099,92,65,1134,2,37610,20980,33846,6410
22200,222,22200,0,0,0,0,0,0,0,0,0,0,0,0,452,6444,459,6451,306,306,301,291,4398,394,2099,92,65,1134,2,37609,20979,33846,6444
22300,223,22300,0,0,0,0,0,0,0,0,0,0,0,0,450,6478,458,6486,306,306,301,291,4395,394,2099,92,65,1134,2,37609,20978,33846,6478
22400,224,22400,0,0,0,0,0,0,0,0,0,0,0,0,448,6512,457,6521,306,306,301,291,4392,395,2099,92,65,1134,2,37608,20977,33846,6512
22500,225,22500,0,0,0,0,0,0,0,0,0,0,0,0,447,6546,457,6556,306,306,301,291,4389,395,2099,92,65,1134,2,37607,20977,33847,6546
22600,226,22600,0,0,0,0,0,0,0,0,0,0,0,0,445,6580,456,6591,306,306,301,291,4385,395,2099,92,65,1134,2,37607,20976,33847,6580
22700,227,22700,0,0,0,0,0,0,0,0,0,0,0,0,443,6613,455,6625,306,306,301,291,4382,395,2099,92,65,1134,2,37606,20975,33847,6613
22800,228,22800,0,0,0,0,0,0,0,0,0,0,0,0,441,6647,454,6660,306,306,301,291,4379,395,2099,92,65,1134,2,37605,20974,33847,6647
22900,229,22900,0,0,0,0,0,0,0,0,0,0,0,0,439,6681,453,6695,306,306,301,291,4376,395,2099,92,65,1134,2,37605,20974,33847,6681
23000,230,23000,0,0,0,0,0,0,0,0,0,0,0,0,437,6715,442,6720,306,306,301,291,4372,395,2099,92,65,1134,2,37604,20973,33848,6715
23100,231,23100,0,0,0,0,0,0,0,0,0,0,0,0,435,6749,441,6755,306,306,301,291,4369,395,2099,92,65,1134,2,37603,20972,33848,6749
23200,232,23200,0,0,0,0,0,0,0,0,0,0,0,0,433,6783,440,6790,306,306,301,291,4366,395,2099,92,65,1134,2,37603,20971,33848,6783
23300,233,23300,0,0,0,0,0,0,0,0,0,0,0,0,432,6817,440,6825,307,307,302,292,4362,395,2099,92,65,1134,2,37602,20971,33848,6817
23400,234,23400,0,0,0,0,0,0,0,0,0,0,0,0,430,6850,439,6859,307,307,302,292,4359,396,2099,92,65,1134,2,37601,20970,33848,6850
23500,235,23500,0,0,0,0,0,0,0,0,0,0,0,0,428,6884,438,6894,307,307,302,292,4355,396,2099,92,65,1134,2,37601,20969,33848,6884
23600,236,23600,0,0,0,0,0,0,0,0,0,0,0,0,426,6918,437,6929,307,307,302,292,4352,396,2099,92,65,1134,2,37600,20969,33848,6918
23700,237,23700,0,0,0,0,0,0,0,0,0,0,0,0,424,6952,436,6964,307,307,302,292,4348,396,2099,92,65,1134,2,37599,20968,33849,6952
23800,238,23800,0,0,0,0,0,0,0,0,0,0,0,0,423,6986,436,6999,307,307,302,292,4345,396,2099,92,65,1134,2,37599,20967,33849,6986
23900,239,23900,0,0,0,0,0,0,0,0,0,0,0,0,421,7020,435,7034,307,307,302,292,4341,396,2099,92,65,1134,2,37598,20966,33849,7020
24000,240,24000,0,0,0,0,0,0,0,0,0,0,0,0,419,7053,424,7058,307,307,302,292,4337,396,2099,91,65,1134,2,37597,20966,33849,7053
24100,241,24100,0,0,0,0,0,0,0,0,0,0,0,0,417,7087,423,7093,307,307,302,292,4334,396,2099,91,65,1134,2,37596,20965,33849,7087
24200,242,24200,0,0,0,0,0,0,0,0,0,0,0,0,416,7121,423,7128,307,307,302,292,4330,396,2099,91,65,1134,2,37596,20964,33849,7121
24300,243,24300,0,0,0,0,0,0,0,0,0,0,0,0,414,7155,422,7163,307,307,302,292,4326,396,2099,91,65,1134,2,37595,20964,33849,7155
24400,244,24400,0,0,0,0,0,0,0,0,0,0,0,0,412,7189,421,7198,307,307,302,292,4322,396,2099,91,65,1134,2,37594,20963,33849,7189
24500,245,24500,0,0,0,0,0,0,0,0,0,0,0,0,410,7223,420,7233,307,307,302,292,4318,397,2099,91,65,1134,2,37593,20962,33849,7223
24600,246,24600,0,0,0,0,0,0,0,0,0,0,0,0,409,7257,420,7268,307,307,302,292,4315,397,2099,91,65,1134,2,37593,20962,33850,7257
24700,247,24700,0,0,0,0,0,0,0,0,0,0,0,0,407,7290,419,7302,307,307,302,292,4311,397,2099,91,65,1134,2,37592,20961,33850,7290
24800,248,24800,0,0,0,0,0,0,0,0,0,0,0,0,405,7324,418,7337,307,307,302,292,4307,397,2099,91,65,1134,2,37591,20961,33850,7324
24900,249,24900,0,0,0,0,0,0,0,0,0,0,0,0,403,7358,417,7372,307,307,302,292,4303,397,2099,91,65,1134,2,37590,20960,33850,7358
25000,250,25000,0,0,0,0,0,0,0,0,0,0,0,0,402,7392,407,7397,307,307,302,292,4299,397,2099,91,65,1134,2,37589,20959,33850,7392
25100,251,25100,0,0,0,0,0,0,0,0,0,0,0,0,400,7426,406,7432,307,307,302,292,4295,397,2099,91,65,1134,2,37589,20959,33850,7426
25200,252,25200,0,0,0,0,0,0,0,0,0,0,0,0,398,7460,405,7467,307,307,302,292,4291,397,2099,91,65,1134,2,37588,20958,33850,7460
25300,253,25300,0,0,0,0,0,0,0,0,0,0,0,0,397,7494,405,7502,307,307,302,292,4287,397,2099,91,65,1134,2,37587,20958,33850,7494
25400,254,25400,0,0,0,0,0,0,0,0,0,0,0,0,395,7527,404,7536,307,307,302,292,4282,397,2099,91,65,1134,2,37586,20957,33850,7527
25500,255,25500,0,0,0,0,0,0,0,0,0,0,0,0,393,7561,403,7571,307,307,302,292,4278,397,2099,91,65,1134,2,37585,20956,33850,7561
25600,256,25600,0,0,0,0,0,0,0,0,0,0,0,0,392,7595,403,7606,307,307,302,292,4274,397,2099,91,65,1134,2,37584,20956,33850,7595
25700,257,25700,0,0,0,0,0,0,0,0,0,0,0,0,390,7629,402,7641,307,307,302,292,4270,397,2098,91,65,1134,2,37584,20955,33850,7629
25800,258,25800,0,0,0,0,0,0,0,0,0,0,0,0,388,7663,401,7676,307,307,302,292,4266,398,2098,91,65,1134,2,37583,20955,33850,7663
25900,259,25900,0,0,0,0,0,0,0,0,0,0,0,0,387,7697,401,7711,307,307,302,292,4262,398,2098,91,65,1134,2,37582,20954,33850,7697
26000,260,26000,0,0,0,0,0,0,0,0,0,0,0,0,385,7730,390,7735,307,307,302,292,4257,398,2098,91,65,1134,2,37581,20954,33850,7730
26100,261,26100,0,0,0,0,0,0,0,0,0,0,0,0,383,7764,389,7770,307,307,302,292,4253,398,2098,91,65,1134,2,37580,20953,33850,7764
26200,262,26200,0,0,0,0,0,0,0,0,0,0,0,0,382,7798,389,7805,307,307,302,292,4249,398,2098,91,65,1134,2,37579,20953,33851,7798
26300,263,26300,0,0,0,0,0,0,0,0,0,0,0,0,380,7832,388,7840,307,307,302,292,4244,398,2098,91,65,1134,2,37578,20952,33851,7832
26400,264,26400,0,0,0,0,0,0,0,0,0,0,0,0,379,7866,388,7875,307,307,302,292,4240,398,2098,91,65,1134,2,37578,20952,33851,7866
26500,265,26500,0,0,0,0,0,0,0,0,0,0,0,0,377,7900,387,7910,307,307,302,292,4236,398,2098,91,65,1134,2,37577,20951,33851,7900
26600,266,26600,0,0,0,0,0,0,0,0,0,0,0,0,375,7934,386,7945,307,307,302,292,4231,398,2097,91,65,1134,2,37576,20951,33851,7934
26700,267,26700,0,0,0,0,0,0,0,0,0,0,0,0,374,7967,386,7979,307,307,302,292,4227,398,2097,91,65,1134,2,37575,20950,33851,7967
26800,268,26800,0,0,0,0,0,0,0,0,0,0,0,0,372,8001,385,8014,307,307,302,292,4222,398,2097,91,65,1134,2,37574,20950,33851,8001
26900,269,26900,0,0,0,0,0,0,0,0,0,0,0,0,371,8035,385,8049,307,307,302,292,4218,398,2097,91,65,1134,2,37573,20950,33851,8035
27000,270,27000,0,0,0,0,0,0,0,0,0,0,0,0,369,8069,374,8074,307,307,302,292,4213,398,2097,90,65,1134,2,37572,20949,33851,8069
27100,271,27100,0,0,0,0,0,0,0,0,0,0,0,0,367,8103,373,8109,307,307,302,292,4209,398,2097,90,65,1134,2,37571,20949,33851,8103
27200,272,27200,0,0,0,0,0,0,0,0,0,0,0,0,366,8137,373,8144,307,307,302,292,4204,398,2097,90,65,1134,2,37570,20948,33851,8137
27300,273,27300,0,0,0,0,0,0,0,0,0,0,0,0,364,8171,372,8179,307,307,302,292,4200,398,2096,90,65,1134,2,37570,20948,33851,8171
27400,274,27400,0,0,0,0,0,0,0,0,0,0,0,0,363,8204,372,8213,307,307,302,292,4195,398,2096,90,65,1134,2,37569,20947,33851,8204
27500,275,27500,0,0,0,0,0,0,0,0,0,0,0,0,361,8238,371,8248,307,307,302,292,4190,399,2096,90,65,1134,2,37568,20947,33851,8238
27600,276,27600,0,0,0,0,0,0,0,0,0,0,0,0,360,8272,371,8283,307,307,302,292,4186,399,2096,90,65,1134,2,37567,20947,33851,8272
27700,277,27700,0,0,0,0,0,0,0,0,0,0,0,0,358,8306,370,8318,307,307,302,292,4181,399,2096,90,65,1134,2,37566,20946,33851,8306
27800,278,27800,0,0,0,0,0,0,0,0,0,0,0,0,357,8340,370,8353,307,307,302,292,4176,399,2096,90,65,1134,2,37565,20946,33851,8340
27900,279,27900,0,0,0,0,0,0,0,0,0,0,0,0,355,8374,369,8388,308,308,303,293,4172,399,2095,90,65,1134,2,37564,20946,33851,8374
28000,280,28000,0,0,0,0,0,0,0,0,0,0,0,0,354,8408,359,8413,308,308,303,293,4167,399,2095,90,65,1134,2,37563,20945,33851,8408
28100,281,28100,0,0,0,0,0,0,0,0,0,0,0,0,352,8441,358,8447,308,308,303,293,4162,399,2095,90,65,1134,2,37562,20945,33851,8441
28200,282,28200,0,0,0,0,0,0,0,0,0,0,0,0,351,8475,358,8482,308,308,303,293,4158,399,2095,90,65,1134,2,37561,20945,33851,8475
28300,283,28300,0,0,0,0,0,0,0,0,0,0,0,0,349,8509,357,8517,308,308,303,293,4153,399,2095,90,65,1134,2,37560,20944,33851,8509
28400,284,28400,0,0,0,0,0,0,0,0,0,0,0,0,348,8543,357,8552,308,308,303,293,4148,399,2094,90,65,1134,2,37559,20944,33851,8543
28500,285,28500,0,0,0,0,0,0,0,0,0,0,0,0,346,8577,356,8587,308,308,303,293,4143,399,2094,90,65,1134,2,37558,20944,33851,8577
28600,286,28600,0,0,0,0,0,0,0,0,0,0,0,0,345,8611,356,8622,308,308,303,293,4138,399,2094,90,65,1134,2,37557,20943,33851,8611
28700,287,28700,0,0,0,0,0,0,0,0,0,0,0,0,343,8644,355,8656,308,308,303,293,4134,399,2094,90,65,1134,2,37556,20943,33851,8644
28800,288,28800,0,0,0,0,0,0,0,0,0,0,0,0,342,8678,355,8691,308,308,303,293,4129,399,2093,90,65,1134,2,37555,20943,33851,8678
28900,289,28900,0,0,0,0,0,0,0,0,0,0,0,0,340,8712,354,8726,308,308,303,293,4124,399,2093,90,65,1134,2,37554,20943,33851,8712
29000,290,29000,0,0,0,0,0,0,0,0,0,0,0,0,339,8746,344,8751,308,308,303,293,4119,399,2093,90,65,1134,2,37553,20942,33851,8746
29100,291,29100,0,0,0,0,0,0,0,0,0,0,0,0,338,8780,344,8786,308,308,303,293,4114,399,2093,90,65,1134,2,37552,20942,33851,8780
29200,292,29200,0,0,0,0,0,0,0,0,0,0,0,0,336,8814,343,8821,308,308,303,293,4109,399,2093,90,65,1134,2,37551,20942,33851,8814
29300,293,29300,0,0,0,0,0,0,0,0,0,0,0,0,335,8848,343,8856,308,308,303,293,4105,399,2092,90,65,1134,2,37551,20942,33851,8848
29400,294,29400,0,0,0,0,0,0,0,0,0,0,0,0,333,8881,342,8890,308,308,303,293,4100,399,2092,90,65,1134,2,37550,20942,33851,8881
29500,295,29500,0,0,0,0,0,0,0,0,0,0,0,0,332,8915,342,8925,308,308,303,293,4095,399,2092,90,65,1134,2,37549,20941,33851,8915
29600,296,29600,0,0,0,0,0,0,0,0,0,0,0,0,331,8949,342,8960,308,308,303,293,4090,399,2092,90,65,1134,2,37548,20941,33851,8949
29700,297,29700,0,0,0,0,0,0,0,0,0,0,0,0,329,8983,341,8995,308,308,303,293,4085,399,2091,90,65,1134,2,37547,20941,33851,8983
29800,298,29800,0,0,0,0,0,0,0,0,0,0,0,0,328,9017,341,9030,308,308,303,293,4080,399,2091,90,65,1134,2,37546,20941,33851,9017
29900,299,29900,0,0,0,0,0,0,0,0,0,0,0,0,326,9051,340,9065,308,308,303,293,4075,399,2091,90,65,1134,2,37545,20941,33851,9051
30000,300,30000,0,0,0,0,0,0,0,0,0,0,0,0,325,9085,330,9090,308,308,303,293,4070,399,2090,89,65,1135,2,37544,20941,33851,9085
30100,301,30100,0,0,0,0,0,0,0,0,0,0,0,0,324,9118,330,9124,308,308,303,293,4065,399,2090,89,65,1135,2,37543,20940,33851,9118
30200,302,30200,0,0,0,0,0,0,0,0,0,0,0,0,322,9152,329,9159,308,308,303,293,4060,399,2090,89,65,1135,2,37542,20940,33851,9152
30300,303,30300,0,0,0,0,0,0,0,0,0,0,0,0,321,9186,329,9194,308,308,303,293,4055,399,2090,89,65,1135,2,37541,20940,33851,9186
30400,304,30400,0,0,0,0,0,0,0,0,0,0,0,0,320,9220,329,9229,308,308,303,293,4050,399,2089,89,65,1135,2,37540,20940,33851,9220
30500,305,30500,0,0,0,0,0,0,0,0,0,0,0,0,318,9254,328,9264,308,308,303,293,4045,399,2089,89,65,1135,2,37539,20940,33851,9254
30600,306,30600,0,0,0,0,0,0,0,0,0,0,0,0,317,9288,328,9299,308,308,303,293,4040,399,2089,89,65,1135,2,37538,20940,33851,9288
30700,307,30700,0,0,0,0,0,0,0,0,0,0,0,0,315,9321,327,9333,308,308,303,293,4035,399,2088,89,65,1135,2,37537,20940,33851,9321
30800,308,30800,0,0,0,0,0,0,0,0,0,0,0,0,314,9355,327,9368,308,308,303,293,4030,399,2088,89,65,1135,2,37536,20940,33851,9355
30900,309,30900,0,0,0,0,0,0,0,0,0,0,0,0,313,9389,327,9403,308,308,303,293,4025,399,2088,89,65,1135,2,37535,20940,33851,9389
31000,310,31000,0,0,0,0,0,0,0,0,0,0,0,0,311,9423,316,9428,308,308,303,293,4020,399,2087,89,65,1135,2,37534,20940,33851,9423
31100,311,31100,0,0,0,0,0,0,0,0,0,0,0,0,310,9457,316,9463,308,308,303,293,4015,399,2087,89,65,1135,2,37533,20940,33851,9457
31200,312,31200,0,0,0,0,0,0,0,0,0,0,0,0,309,9491,316,9498,308,308,303,293,4010,399,2087,89,65,1135,2,37532,20940,33851,9491
31300,313,31300,0,0,0,0,0,0,0,0,0,0,0,0,308,9525,316,9533,308,308,303,293,4005,399,2086,89,65,1135,2,37531,20940,33851,9525
31400,314,31400,0,0,0,0,0,0,0,0,0,0,0,0,306,9558,315,9567,308,308,303,293,4000,399,2086,89,65,1135,2,37530,20940,33851,9558
31500,315,31500,0,0,0,0,0,0,0,0,0,0,0,0,305,9592,315,9602,308,308,303,293,3995,399,2086,89,65,1135,2,37529,20940,33851,9592
31600,316,31600,0,0,0,0,0,0,0,0,0,0,0,0,304,9626,315,9637,308,308,303,293,3990,399,2085,89,65,1135,2,37528,20940,33851,9626
31700,317,31700,0,0,0,0,0,0,0,0,0,0,0,0,302,9660,314,9672,308,308,303,293,3985,399,2085,89,65,1135,2,37527,20940,33851,9660
31800,318,31800,0,0,0,0,0,0,0,0,0,0,0,0,301,9694,314,9707,308,308,303,293,3980,399,2085,89,65,1135,2,37526,20940,33851,9694
31900,319,31900,0,0,0,0,0,0,0,0,0,0,0,0,300,9728,314,9742,308,308,303,293,3975,399,2084,89,65,1135,2,37525,20940,33851,9728
32000,320,32000,0,0,0,0,0,0,0,0,0,0,0,0,299,9762,304,9767,308,308,303,293,3970,399,2084,89,65,1135,2,37524,20940,33851,9762
32100,321,32100,0,0,0,0,0,0,0,0,0,0,0,0,297,9795,303,9801,308,308,303,293,3965,399,2084,89,65,1135,2,37523,20940,33851,9795
32200,322,32200,0,0,0,0,0,0,0,0,0,0,0,0,296,9829,303,9836,308,308,303,293,3960,399,2083,89,65,1135,2,37522,20940,33851,9829
32300,323,32300,0,0,0,0,0,0,0,0,0,0,0,0,295,9863,303,9871,308,308,303,293,3955,399,2083,89,65,1135,2,37521,20940,33851,9863
32400,324,32400,0,0,0,0,0,0,0,0,0,0,0,0,294,9897,303,9906,308,308,303,293,3950,399,2083,89,65,1135,2,37520,20940,33851,9897
32500,325,32500,0,0,0,0,0,0,0,0,0,0,0,0,292,9931,302,9941,308,308,303,293,3945,399,2082,89,65,1135,2,37519,20940,33851,9931
32600,326,32600,0,0,0,0,0,0,0,0,0,0,0,0,291,9965,302,9976,308,308,303,293,3940,399,2082,89,65,1135,2,37518,20940,33851,9965
32700,327,32700,0,0,0,0,0,0,0,0,0,0,0,0,290,9999,302,10011,308,308,303,293,3935,399,2082,89,65,1135,2,37517,20940,33851,9999
32800,328,32800,0,0,0,0,0,0,0,0,0,0,0,0,289,10032,302,10045,308,308,303,293,3931,399,2081,89,65,1135,2,37516,20940,33851,10032
32900,329,32900,0,0,0,0,0,0,0,0,0,0,0,0,287,10066,301,10080,308,308,303,293,3926,399,2081,89,65,1135,2,37515,20941,33851,10066
33000,330,33000,0,0,0,0,0,0,0,0,0,0,0,0,286,10100,291,10105,308,308,303,293,3921,399,2080,88,65,1135,2,37514,20941,33851,10100
33100,331,33100,0,0,0,0,0,0,0,0,0,0,0,0,285,10134,291,10140,308,308,303,293,3916,399,2080,88,65,1135,2,37513,20941,33851,10134
33200,332,33200,0,0,0,0,0,0,0,0,0,0,0,0,284,10168,291,10175,308,308,303,293,3911,399,2080,88,65,1135,2,37512,20941,33851,10168
33300,333,33300,0,0,0,0,0,0,0,0,0,0,0,0,283,10202,291,10210,308,308,303,293,3906,399,2079,88,65,1135,2,37511,20941,33851,10202
33400,334,33400,0,0,0,0,0,0,0,0,0,0,0,0,281,10236,290,10245,308,308,303,293,3901,399,2079,88,65,1135,2,37510,20941,33851,10236
33500,335,33500,0,0,0,0,0,0,0,0,0,0,0,0,280,10269,290,10279,308,308,303,293,3896,399,2078,88,65,1135,2,37509,20942,33851,10269
33600,336,33600,0,0,0,0,0,0,0,0,0,0,0,0,279,10303,290,10314,309,309,304,294,3891,399,2078,88,65,1135,2,37508,20942,33851,10303
33700,337,33700,0,0,0,0,0,0,0,0,0,0,0,0,278,10337,290,10349,309,309,304,294,3886,399,2078,88,65,1135,2,37507,20942,33851,10337
33800,338,33800,0,0,0,0,0,0,0,0,0,0,0,0,277,10371,290,10384,309,309,304,294,3881,399,2077,88,65,1135,2,37506,20942,33851,10371
33900,339,33900,0,0,0,0,0,0,0,0,0,0,0,0,275,10405,289,10419,309,309,304,294,3877,399,2077,88,65,1135,2,37505,20943,33851,10405
34000,340,34000,0,0,0,0,0,0,0,0,0,0,0,0,274,10439,279,10444,309,309,304,294,3872,399,2076,88,65,1135,2,37504,20943,33851,10439
34100,341,34100,0,0,0,0,0,0,0,0,0,0,0,0,273,10472,279,10478,309,309,304,294,3867,399,2076,88,65,1135,2,37503,20943,33851,10472
34200,342,34200,0,0,0,0,0,0,0,0,0,0,0,0,272,10506,279,10513,309,309,304,294,3862,399,2075,88,65,1135,2,37502,20943,33851,10506
34300,343,34300,0,0,0,0,0,0,0,0,0,0,0,0,271,10540,279,10548,309,309,304,294,3857,399,2075,88,65,1135,2,37501,20944,33851,10540
34400,344,34400,0,0,0,0,0,0,0,0,0,0,0,0,270,10574,279,10583,309,309,304,294,3853,399,2075,88,65,1135,2,37500,20944,33851,10574
34500,345,34500,0,0,0,0,0,0,0,0,0,0,0,0,269,10608,279,10618,309,309,304,294,3848,399,2074,88,65,1135,2,37499,20944,33851,10608
34600,346,34600,0,0,0,0,0,0,0,0,0,0,0,0,267,10642,278,10653,309,309,304,294,3843,399,2074,88,65,1135,2,37498,20945,33851,10642
34700,347,34700,0,0,0,0,0,0,0,0,0,0,0,0,266,10676,278,10688,309,309,304,294,3838,399,2073,88,65,1135,2,37497,20945,33851,10676
34800,348,34800,0,0,0,0,0,0,0,0,0,0,0,0,265,10709,278,10722,309,309,304,294,3834,399,2073,88,65,1135,2,37496,20945,33851,10709
34900,349,34900,0,0,0,0,0,0,0,0,0,0,0,0,264,10743,278,10757,309,309,304,294,3829,399,2072,88,65,1135,2,37495,20946,33851,10743
35000,350,35000,0,0,0,0,0,0,0,0,0,0,0,0,263,10777,268,10782,309,309,304,294,3824,399,2072,88,65,1135,2,37494,20946,33851,10777
35100,351,35100,0,0,0,0,0,0,0,0,0,0,0,0,262,10811,268,10817,309,309,304,294,3819,399,2071,88,65,1135,2,37493,20946,33851,10811
35200,352,35200,0,0,0,0,0,0,0,0,0,0,0,0,261,10845,268,10852,309,309,304,294,3815,399,2071,88,65,1135,2,37493,20947,33851,10845
35300,353,35300,0,0,0,0,0,0,0,0,0,0,0,0,260,10879,268,10887,309,309,304,294,3810,399,2070,88,65,1135,2,37492,20947,33851,10879
35400,354,35400,0,0,0,0,0,0,0,0,0,0,0,0,258,10913,267,10922,309,309,304,294,3806,399,2070,88,65,1135,2,37491,20947,33851,10913
35500,355,35500,0,0,0,0,0,0,0,0,0,0,0,0,257,10946,267,10956,309,309,304,294,3801,398,2069,88,65,1135,2,37490,20948,33851,10946
35600,356,35600,0,0,0,0,0,0,0,0,0,0,0,0,256,10980,267,10991,309,309,304,294,3796,398,2069,88,65,1135,2,37489,20948,33851,10980
35700,357,35700,0,0,0,0,0,0,0,0,0,0,0,0,255,11014,267,11026,309,309,304,294,3792,398,2069,88,65,1135,2,37488,20949,33852,11014
35800,358,35800,0,0,0,0,0,0,0,0,0,0,0,0,254,11048,267,11061,309,309,304,294,3787,398,2068,88,65,1135,2,37487,20949,33852,11048
35900,359,35900,0,0,0,0,0,0,0,0,0,0,0,0,253,11082,267,11096,309,309,304,294,3783,398,2068,88,65,1135,2,37486,20949,33852,11082
36000,360,36000,0,0,0,0,0,0,0,0,0,0,0,0,252,11116,257,11121,309,309,304,294,3778,398,2067,87,65,1135,2,37485,20950,33852,11116
36100,361,36100,0,0,0,0,0,0,0,0,0,0,0,0,251,11150,257,11156,309,309,304,294,3774,398,2067,87,65,1135,2,37484,20950,33852,11150
36200,362,36200,0,0,0,0,0,0,0,0,0,0,0,0,250,11183,257,11190,309,309,304,294,3769,398,2066,87,65,1135,2,37483,20951,33852,11183
36300,363,36300,0,0,0,0,0,0,0,0,0,0,0,0,249,11217,257,11225,309,309,304,294,3765,398,2066,87,65,1135,2,37483,20951,33852,11217
36400,364,36400,0,0,0,0,0,0,0,0,0,0,0,0,248,11251,257,11260,309,309,304,294,3760,398,2065,87,65,1135,2,37482,20952,33852,11251
36500,365,36500,0,0,0,0,0,0,0,0,0,0,0,0,247,11285,257,11295,309,309,304,294,3756,398,2065,87,65,1135,2,37481,20952,33852,11285
36600,366,36600,0,0,0,0,0,0,0,0,0,0,0,0,246,11319,257,11330,309,309,304,294,3752,398,2064,87,65,1135,2,37480,20953,33852,11319
36700,367,36700,0,0,0,0,0,0,0,0,0,0,0,0,245,11353,257,11365,309,309,304,294,3747,398,2064,87,65,1135,2,37479,20953,33852,11353
36800,368,36800,0,0,0,0,0,0,0,0,0,0,0,0,244,11386,257,11399,309,309,304,294,3743,398,2063,87,65,1135,2,37478,20954,33852,11386
36900,369,36900,0,0,0,0,0,0,0,0,0,0,0,0,243,11420,257,11434,309,309,304,294,3739,398,2063,87,65,1135,2,37477,20954,33852,11420
37000,370,37000,0,0,0,0,0,0,0,0,0,0,0,0,242,11454,247,11459,309,309,304,294,3735,398,2062,87,65,1135,2,37477,20955,33852,11454
37100,371,37100,0,0,0,0,0,0,0,0,0,0,0,0,241,11488,247,11494,309,309,304,294,3730,397,2061,87,65,1135,2,37476,20955,33852,11488
37200,372,37200,0,0,0,0,0,0,0,0,0,0,0,0,239,11522,246,11529,309,309,304,294,3726,397,2061,87,65,1135,2,37475,20956,33852,11522
37300,373,37300,0,0,0,0,0,0,0,0,0,0,0,0,238,11556,246,11564,309,309,304,294,3722,397,2060,87,65,1135,2,37474,20956,33852,11556
37400,374,37400,0,0,0,0,0,0,0,0,0,0,0,0,237,11590,246,11599,309,309,304,294,3718,397,2060,87,65,1135,2,37473,20957,33852,11590
37500,375,37500,0,0,0,0,0,0,0,0,0,0,0,0,236,11623,246,11633,309,309,304,294,3714,397,2059,87,65,1135,2,37472,20957,33852,11623
37600,376,37600,0,0,0,0,0,0,0,0,0,0,0,0,235,11657,246,11668,309,309,304,294,3710,397,2059,87,65,1135,2,37472,20958,33852,11657
37700,377,37700,0,0,0,0,0,0,0,0,0,0,0,0,234,11691,246,11703,309,309,304,294,3706,397,2058,87,65,1135,2,37471,20959,33852,11691
37800,378,37800,0,0,0,0,0,0,0,0,0,0,0,0,233,11725,246,11738,309,309,304,294,3702,397,2058,87,65,1135,2,37470,20959,33852,11725
37900,379,37900,0,0,0,0,0,0,0,0,0,0,0,0,232,11759,246,11773,309,309,304,294,3698,397,2057,87,65,1135,2,37469,20960,33852,11759
38000,380,38000,0,0,0,0,0,0,0,0,0,0,0,0,232,11793,237,11798,309,309,304,294,3694,397,2057,87,65,1135,2,37468,20960,33852,11793
38100,381,38100,0,0,0,0,0,0,0,0,0,0,0,0,231,11827,237,11833,309,309,304,294,3690,397,2056,87,65,1135,2,37468,20961,33852,11827
38200,382,38200,0,0,0,0,0,0,0,0,0,0,0,0,230,11860,237,11867,309,309,304,294,3686,397,2056,87,65,1135,2,37467,20962,33852,11860
38300,383,38300,0,0,0,0,0,0,0,0,0,0,0,0,229,11894,237,11902,309,309,304,294,3682,397,2055,87,65,1135,2,37466,20962,33852,11894
38400,384,38400,0,0,0,0,0,0,0,0,0,0,0,0,228,11928,237,11937,309,309,304,294,3678,396,2054,87,65,1135,2,37465,20963,33852,11928
38500,385,38500,0,0,0,0,0,0,0,0,0,0,0,0,227,11962,237,11972,309,309,304,294,3674,396,2054,87,65,1135,2,37464,20964,33852,11962
38600,386,38600,0,0,0,0,0,0,0,0,0,0,0,0,226,11996,237,12007,309,309,304,294,3670,396,2053,87,65,1135,2,37464,20964,33852,11996
38700,387,38700,0,0,0,0,0,0,0,0,0,0,0,0,225,12030,237,12042,309,309,304,294,3667,396,2053,87,65,1135,2,37463,20965,33852,12030
38800,388,38800,0,0,0,0,0,0,0,0,0,0,0,0,224,12064,237,12077,309,309,304,294,3663,396,2052,87,65,1135,2,37462,20966,33852,12064
38900,389,38900,0,0,0,0,0,0,0,0,0,0,0,0,223,12097,237,12111,309,309,304,294,3659,396,2052,87,65,1135,2,37461,20966,33852,12097
39000,390,39000,0,0,0,0,0,0,0,0,0,0,0,0,222,12131,227,12136,309,309,304,294,3656,396,2051,86,65,1135,2,37461,20967,33852,12131
39100,391,39100,0,0,0,0,0,0,0,0,0,0,0,0,221,12165,227,12171,309,309,304,294,3652,396,2050,86,65,1135,2,37460,20968,33852,12165
39200,392,39200,0,0,0,0,0,0,0,0,0,0,0,0,220,12199,227,12206,309,309,304,294,3648,396,2050,86,65,1135,2,37459,20968,33852,12199
39300,393,39300,0,0,0,0,0,0,0,0,0,0,0,0,219,12233,227,12241,309,309,304,294,3645,396,2049,86,65,1135,2,37459,20969,33852,12233
39400,394,39400,0,0,0,0,0,0,0,0,0,0,0,0,218,12267,227,12276,309,309,304,294,3641,396,2049,86,65,1135,2,37458,20970,33852,12267
39500,395,39500,0,0,0,0,0,0,0,0,0,0,0,0,217,12300,227,12310,309,309,304,294,3638,395,2048,86,65,1135,2,37457,20970,33852,12300
39600,396,39600,0,0,0,0,0,0,0,0,0,0,0,0,216,12334,227,12345,309,309,304,294,3634,395,2048,86,65,1135,2,37456,20971,33852,12334
39700,397,39700,0,0,0,0,0,0,0,0,0,0,0,0,215,12368,227,12380,309,309,304,294,3631,395,2047,86,65,1135,2,37456,20972,33852,12368
39800,398,39800,0,0,0,0,0,0,0,0,0,0,0,0,214,12402,227,12415,309,309,304,294,3628,395,2046,86,65,1135,2,37455,20973,33852,12402
39900,399,39900,0,0,0,0,0,0,0,0,0,0,0,0,214,12436,228,12450,309,309,304,294,3624,395,2046,86,65,1135,2,37454,20973,33852,12436
40000,400,40000,0,0,0,0,0,0,0,0,0,0,0,0,213,12470,218,12475,309,309,304,294,3621,395,2045,86,65,1135,2,37454,20974,33852,12470
40100,401,40100,0,0,0,0,0,0,0,0,0,0,0,0,212,12504,218,12510,309,309,304,294,3618,395,2045,86,65,1135,2,37453,20975,33852,12504
40200,402,40200,0,0,0,0,0,0,0,0,0,0,0,0,211,12537,218,12544,309,309,304,294,3615,395,2044,86,65,1135,2,37453,20976,33852,12537
40300,403,40300,0,0,0,0,0,0,0,0,0,0,0,0,210,12571,218,12579,309,309,304,294,3611,395,2043,86,65,1135,2,37452,20976,33852,12571
40400,404,40400,0,0,0,0,0,0,0,0,0,0,0,0,209,12605,218,12614,309,309,304,294,3608,395,2043,86,65,1135,2,37451,20977,33852,12605
40500,405,40500,0,0,0,0,0,0,0,0,0,0,0,0,208,12639,218,12649,309,309,304,294,3605,394,2042,86,65,1135,2,37451,20978,33852,12639
40600,406,40600,0,0,0,0,0,0,0,0,0,0,0,0,207,12673,218,12684,309,309,304,294,3602,394,2042,86,65,1135,2,37450,20979,33852,12673
40700,407,40700,0,0,0,0,0,0,0,0,0,0,0,0,206,12707,218,12719,309,309,304,294,3599,394,2041,86,65,1135,2,37449,20980,33852,12707
40800,408,40800,0,0,0,0,0,0,0,0,0,0,0,0,206,12741,219,12754,309,309,304,294,3596,394,2040,86,65,1135,2,37449,20980,33852,12741
40900,409,40900,0,0,0,0,0,0,0,0,0,0,0,0,205,12774,219,12788,309,309,304,294,3593,394,2040,86,65,1135,2,37448,20981,33852,12774
41000,410,41000,0,0,0,0,0,0,0,0,0,0,0,0,204,12808,209,12813,309,309,304,294,3590,394,2039,86,65,1135,2,37448,20982,33852,12808
41100,411,41100,0,0,0,0,0,0,0,0,0,0,0,0,203,12842,209,12848,309,309,304,294,3588,394,2039,86,65,1135,2,37447,20983,33852,12842
41200,412,41200,0,0,0,0,0,0,0,0,0,0,0,0,202,12876,209,12883,309,309,304,294,3585,394,2038,86,65,1135,2,37447,20984,33852,12876
41300,413,41300,0,0,0,0,0,0,0,0,0,0,0,0,201,12910,209,12918,309,309,304,294,3582,394,2037,86,65,1135,2,37446,20984,33852,12910
41400,414,41400,0,0,0,0,0,0,0,0,0,0,0,0,200,12944,209,12953,309,309,304,294,3579,393,2037,86,65,1135,2,37445,20985,33852,12944
41500,415,41500,0,0,0,0,0,0,0,0,0,0,0,0,200,12978,210,12988,309,309,304,294,3577,393,2036,86,65,1135,2,37445,20986,33852,12978
41600,416,41600,0,0,0,0,0,0,0,0,0,0,0,0,199,13011,210,13022,309,309,304,294,3574,393,2035,86,65,1135,2,37444,20987,33852,13011
41700,417,41700,0,0,0,0,0,0,0,0,0,0,0,0,198,13045,210,13057,309,309,304,294,3571,393,2035,86,65,1135,2,37444,20988,33852,13045
41800,418,41800,0,0,0,0,0,0,0,0,0,0,0,0,197,13079,210,13092,309,309,304,294,3569,393,2034,86,65,1135,2,37443,20989,33852,13079
41900,419,41900,0,0,0,0,0,0,0,0,0,0,0,0,196,13113,210,13127,309,309,304,294,3566,393,2034,86,65,1135,2,37443,20990,33852,13113
42000,420,42000,0,0,0,0,0,0,0,0,0,0,0,0,195,13147,200,13152,309,309,304,294,3564,393,2033,85,65,1135,2,37442,20990,33852,13147
42100,421,42100,0,0,0,0,0,0,0,0,0,0,0,0,195,13181,201,13187,309,309,304,294,3561,393,2032,85,65,1135,2,37442,20991,33852,13181
42200,422,42200,0,0,0,0,0,0,0,0,0,0,0,0,194,13214,201,13221,309,309,304,294,3559,392,2032,85,65,1135,2,37441,20992,33852,13214
42300,423,42300,0,0,0,0,0,0,0,0,0,0,0,0,193,13248,201,13256,309,309,304,294,3557,392,2031,85,65,1135,2,37441,20993,33852,13248
42400,424,42400,0,0,0,0,0,0,0,0,0,0,0,0,192,13282,201,13291,309,309,304,294,3554,392,2030,85,65,1135,2,37440,20994,33852,13282
42500,425,42500,0,0,0,0,0,0,0,0,0,0,0,0,191,13316,201,13326,309,309,304,294,3552,392,2030,85,65,1135,2,37440,20995,33852,13316
42600,426,42600,0,0,0,0,0,0,0,0,0,0,0,0,190,13350,201,13361,309,309,304,294,3550,392,2029,85,65,1135,2,37440,20996,33852,13350
42700,427,42700,0,0,0,0,0,0,0,0,0,0,0,0,190,13384,202,13396,309,309,304,294,3548,392,2029,85,65,1135,2,37439,20997,33852,13384
42800,428,42800,0,0,0,0,0,0,0,0,0,0,0,0,189,13418,202,13431,309,309,304,294,3546,392,2028,85,65,1135,2,37439,20998,33852,13418
42900,429,42900,0,0,0,0,0,0,0,0,0,0,0,0,188,13451,202,13465,309,309,304,294,3543,391,2027,85,65,1135,2,37438,20999,33852,13451
43000,430,43000,0,0,0,0,0,0,0,0,0,0,0,0,187,13485,192,13490,309,309,304,294,3541,391,2027,85,65,1135,2,37438,20999,33852,13485
43100,431,43100,0,0,0,0,0,0,0,0,0,0,0,0,186,13519,192,13525,309,309,304,294,3539,391,2026,85,65,1135,2,37437,21000,33852,13519
43200,432,43200,0,0,0,0,0,0,0,0,0,0,0,0,186,13553,193,13560,309,309,304,294,3538,391,2025,85,65,1135,2,37437,21001,33852,13553
43300,433,43300,0,0,0,0,0,0,0,0,0,0,0,0,185,13587,193,13595,309,309,304,294,3536,391,2025,85,65,1135,2,37437,21002,33852,13587
43400,434,43400,0,0,0,0,0,0,0,0,0,0,0,0,184,13621,193,13630,309,309,304,294,3534,391,2024,85,65,1135,2,37436,21003,33852,13621
43500,435,43500,0,0,0,0,0,0,0,0,0,0,0,0,183,13655,193,13665,309,309,304,294,3532,391,2023,85,65,1135,2,37436,21004,33852,13655
43600,436,43600,0,0,0,0,0,0,0,0,0,0,0,0,183,13688,194,13699,309,309,304,294,3530,391,2023,85,65,1135,2,37436,21005,33852,13688
43700,437,43700,0,0,0,0,0,0,0,0,0,0,0,0,182,13722,194,13734,309,309,304,294,3529,390,2022,85,65,1135,2,37435,21006,33852,13722
43800,438,43800,0,0,0,0,0,0,0,0,0,0,0,0,181,13756,194,13769,309,309,304,294,3527,390,2021,85,65,1135,2,37435,21007,33852,13756
43900,439,43900,0,0,0,0,0,0,0,0,0,0,0,0,180,13790,194,13804,309,309,304,294,3525,390,2021,85,65,1135,2,37435,21008,33852,13790
44000,440,44000,0,0,0,0,0,0,0,0,0,0,0,0,179,13824,184,13829,309,309,304,294,3524,390,2020,85,65,1135,2,37434,21009,33852,13824
44100,441,44100,0,0,0,0,0,0,0,0,0,0,0,0,179,13858,185,13864,309,309,304,294,3522,390,2020,85,65,1135,2,37434,21010,33852,13858
44200,442,44200,0,0,0,0,0,0,0,0,0,0,0,0,178,13892,185,13899,309,309,304,294,3521,390,2019,85,65,1135,2,37434,21011,33852,13892
44300,443,44300,0,0,0,0,0,0,0,0,0,0,0,0,177,13925,185,13933,309,309,304,294,3519,389,2018,85,65,1135,2,37433,21012,33852,13925
44400,444,44400,0,0,0,0,0,0,0,0,0,0,0,0,176,13959,185,13968,309,309,304,294,3518,389,2018,85,65,1135,2,37433,21013,33852,13959
44500,445,44500,0,0,0,0,0,0,0,0,0,0,0,0,176,13993,186,14003,309,309,304,294,3517,389,2017,85,65,1135,2,37433,21014,33852,13993
44600,446,44600,0,0,0,0,0,0,0,0,0,0,0,0,175,14027,186,14038,309,309,304,294,3515,389,2016,85,65,1135,2,37433,21015,33852,14027
44700,447,44700,0,0,0,0,0,0,0,0,0,0,0,0,174,14061,186,14073,309,309,304,294,3514,389,2016,85,65,1135,2,37432,21015,33852,14061
44800,448,44800,0,0,0,0,0,0,0,0,0,0,0,0,173,14095,186,14108,309,309,304,294,3513,389,2015,85,65,1135,2,37432,21016,33852,14095
44900,449,44900,0,0,0,0,0,0,0,0,0,0,0,0,173,14128,187,14142,309,309,304,294,3512,389,2014,85,65,1135,2,37432,21017,33852,14128
45000,450,45000,0,0,0,0,0,0,0,0,0,0,0,0,172,14162,177,14167,309,309,304,294,3511,388,2014,84,65,1135,2,37432,21018,33852,14162
45100,451,45100,0,0,0,0,0,0,0,0,0,0,0,0,171,14196,177,14202,309,309,304,294,3510,388,2013,84,65,1135,2,37432,21019,33852,14196
45200,452,45200,0,0,0,0,0,0,0,0,0,0,0,0,171,14230,178,14237,309,309,304,294,3509,388,2012,84,65,1135,2,37431,21020,33852,14230
45300,453,45300,0,0,0,0,0,0,0,0,0,0,0,0,170,14264,178,14272,309,309,304,294,3508,388,2012,84,65,1135,2,37431,21021,33852,14264
45400,454,45400,0,0,0,0,0,0,0,0,0,0,0,0,169,14298,178,14307,309,309,304,294,3507,388,2011,84,65,1135,2,37431,21022,33852,14298
45500,455,45500,0,0,0,0,0,0,0,0,0,0,0,0,168,14332,178,14342,309,309,304,294,3506,388,2010,84,65,1135,2,37431,21023,33852,14332
45600,456,45600,0,0,0,0,0,0,0,0,0,0,0,0,168,14365,179,14376,309,309,304,294,3505,387,2010,84,65,1135,2,37431,21024,33852,14365
45700,457,45700,0,0,0,0,0,0,0,0,0,0,0,0,167,14399,179,14411,309,309,304,294,3505,387,2009,84,65,1135,2,37431,21025,33852,14399
45800,458,45800,0,0,0,0,0,0,0,0,0,0,0,0,166,14433,179,14446,309,309,304,294,3504,387,2008,84,65,1135,2,37430,21026,33852,14433
45900,459,45900,0,0,0,0,0,0,0,0,0,0,0,0,166,14467,180,14481,309,309,304,294,3503,387,2008,84,65,1135,2,37430,21027,33852,14467
46000,460,46000,0,0,0,0,0,0,0,0,0,0,0,0,165,14501,170,14506,309,309,304,294,3503,387,2007,84,65,1135,2,37430,21028,33852,14501
46100,461,46100,0,0,0,0,0,0,0,0,0,0,0,0,164,14535,170,14541,309,309,304,294,3502,387,2006,84,65,1135,2,37430,21029,33852,14535
46200,462,46200,0,0,0,0,0,0,0,0,0,0,0,0,163,14569,170,14576,309,309,304,294,3502,386,2006,84,65,1135,2,37430,21030,33852,14569
46300,463,46300,0,0,0,0,0,0,0,0,0,0,0,0,163,14602,171,14610,309,309,304,294,3501,386,2005,84,65,1135,2,37430,21031,33852,14602
46400,464,46400,0,0,0,0,0,0,0,0,0,0,0,0,162,14636,171,14645,309,309,304,294,3501,386,2004,84,65,1135,2,37430,21032,33852,14636
46500,465,46500,0,0,0,0,0,0,0,0,0,0,0,0,161,14670,171,14680,309,309,304,294,3500,386,2004,84,65,1135,2,37430,21033,33852,14670
46600,466,46600,0,0,0,0,0,0,0,0,0,0,0,0,161,14704,172,14715,309,309,304,294,3500,386,2003,84,65,1135,2,37430,21034,33852,14704
46700,467,46700,0,0,0,0,0,0,0,0,0,0,0,0,160,14738,172,14750,309,309,304,294,3500,386,2002,84,65,1135,2,37430,21035,33852,14738
46800,468,46800,0,0,0,0,0,0,0,0,0,0,0,0,159,14772,172,14785,309,309,304,294,3500,385,2002,84,65,1135,2,37430,21036,33852,14772
46900,469,46900,0,0,0,0,0,0,0,0,0,0,0,0,159,14806,173,14820,309,309,304,294,3500,385,2001,84,65,1135,2,37430,21037,33852,14806
47000,470,47000,0,0,0,0,0,0,0,0,0,0,0,0,158,14839,163,14844,309,309,304,294,3500,385,2000,84,65,1135,2,37430,21038,33852,14839
47100,471,47100,0,0,0,0,0,0,0,0,0,0,0,0,157,14873,163,14879,309,309,304,294,3500,385,2000,84,65,1135,2,37430,21039,33852,14873
47200,472,47200,0,0,0,0,0,0,0,0,0,0,0,0,157,14907,164,14914,309,309,304,294,3500,385,1999,84,65,1135,2,37430,21040,33852,14907
47300,473,47300,0,0,0,0,0,0,0,0,0,0,0,0,156,14941,164,14949,309,309,304,294,3500,385,1998,84,65,1135,2,37430,21041,33852,14941
47400,474,47400,0,0,0,0,0,0,0,0,0,0,0,0,155,14975,164,14984,309,309,304,294,3500,384,1998,84,65,1135,2,37430,21042,33852,14975
47500,475,47500,0,0,0,0,0,0,0,0,0,0,0,0,155,15009,165,15019,309,309,304,294,3500,384,1997,84,65,1135,2,37430,21043,33852,15009
47600,476,47600,0,0,0,0,0,0,0,0,0,0,0,0,154,15042,165,15053,309,309,304,294,3500,384,1996,84,65,1135,2,37430,21044,33852,15042
47700,477,47700,0,0,0,0,0,0,0,0,0,0,0,0,153,15076,165,15088,309,309,304,294,3500,384,1996,84,65,1135,2,37430,21045,33852,15076
47800,478,47800,0,0,0,0,0,0,0,0,0,0,0,0,153,15110,166,15123,309,309,304,294,3501,384,1995,84,65,1135,2,37430,21046,33852,15110
47900,479,47900,0,0,0,0,0,0,0,0,0,0,0,0,152,15144,166,15158,309,309,304,294,3501,383,1994,84,65,1135,2,37430,21047,33852,15144
48000,480,48000,0,0,0,0,0,0,0,0,0,0,0,0,151,15178,156,15183,309,309,304,294,3501,383,1994,83,65,1135,2,37430,21048,33852,15178
48100,481,48100,0,0,0,0,0,0,0,0,0,0,0,0,151,15212,157,15218,309,309,304,294,3502,383,1993,83,65,1135,2,37430,21049,33852,15212
48200,482,48200,0,0,0,0,0,0,0,0,0,0,0,0,150,15246,157,15253,309,309,304,294,3502,383,1992,83,65,1135,2,37430,21050,33852,15246
48300,483,48300,0,0,0,0,0,0,0,0,0,0,0,0,150,15279,158,15287,309,309,304,294,3503,383,1992,83,65,1135,2,37430,21051,33852,15279
48400,484,48400,0,0,0,0,0,0,0,0,0,0,0,0,149,15313,158,15322,309,309,304,294,3504,383,1991,83,65,1135,2,37430,21052,33852,15313
48500,485,48500,0,0,0,0,0,0,0,0,0,0,0,0,148,15347,158,15357,309,309,304,294,3504,382,1990,83,65,1135,2,37430,21053,33852,15347
48600,486,48600,0,0,0,0,0,0,0,0,0,0,0,0,148,15381,159,15392,309,309,304,294,3505,382,1990,83,65,1135,2,37431,21054,33852,15381
48700,487,48700,0,0,0,0,0,0,0,0,0,0,0,0,147,15415,159,15427,309,309,304,294,3506,382,1989,83,65,1135,2,37431,21055,33852,15415
48800,488,48800,0,0,0,0,0,0,0,0,0,0,0,0,146,15449,159,15462,309,309,304,294,3507,382,1988,83,65,1135,2,37431,21056,33852,15449
48900,489,48900,0,0,0,0,0,0,0,0,0,0,0,0,146,15483,160,15497,309,309,304,294,3507,382,1988,83,65,1135,2,37431,21057,33852,15483
49000,490,49000,0,0,0,0,0,0,0,0,0,0,0,0,145,15516,150,15521,309,309,304,294,3508,381,1987,83,65,1135,2,37431,21058,33852,15516
49100,491,49100,0,0,0,0,0,0,0,0,0,0,0,0,145,15550,151,15556,309,309,304,294,3509,381,1986,83,65,1135,2,37431,21059,33852,15550
49200,492,49200,0,0,0,0,0,0,0,0,0,0,0,0,144,15584,151,15591,309,309,304,294,3510,381,1986,83,65,1135,2,37432,21060,33852,15584
49300,493,49300,0,0,0,0,0,0,0,0,0,0,0,0,143,15618,151,15626,309,309,304,294,3511,381,1985,83,65,1135,2,37432,21061,33852,15618
49400,494,49400,0,0,0,0,0,0,0,0,0,0,0,0,143,15652,152,15661,309,309,304,294,3512,381,1984,83,65,1135,2,37432,21062,33852,15652
49500,495,49500,0,0,0,0,0,0,0,0,0,0,0,0,142,15686,152,15696,309,309,304,294,3514,380,1984,83,65,1135,2,37432,21063,33852,15686
49600,496,49600,0,0,0,0,0,0,0,0,0,0,0,0,142,15720,153,15731,309,309,304,294,3515,380,1983,83,65,1135,2,37433,21064,33852,15720
49700,497,49700,0,0,0,0,0,0,0,0,0,0,0,0,141,15753,153,15765,309,309,304,294,3516,380,1982,83,65,1135,2,37433,21065,33852,15753
49800,498,49800,0,0,0,0,0,0,0,0,0,0,0,0,140,15787,153,15800,309,309,304,294,3517,380,1982,83,65,1135,2,37433,21066,33852,15787
49900,499,49900,0,0,0,0,0,0,0,0,0,0,0,0,140,15821,154,15835,309,309,304,294,3519,380,1981,83,65,1135,2,37433,21067,33852,15821
50000,500,50000,0,0,0,0,0,0,0,0,0,0,0,0,139,15855,144,15860,309,309,304,294,3520,379,1980,83,65,1135,2,37434,21068,33852,15855
50100,501,50100,0,0,0,0,0,0,0,0,0,0,0,0,139,15889,145,15895,309,309,304,294,3521,379,1980,83,65,1135,2,37434,21069,33852,15889
50200,502,50200,0,0,0,0,0,0,0,0,0,0,0,0,138,15923,145,15930,309,309,304,294,3523,379,1979,83,65,1135,2,37434,21070,33852,15923
50300,503,50300,0,0,0,0,0,0,0,0,0,0,0,0,137,15956,145,15964,309,309,304,294,3525,379,1978,83,65,1135,2,37435,21071,33852,15956
50400,504,50400,0,0,0,0,0,0,0,0,0,0,0,0,137,15990,146,15999,309,309,304,294,3526,379,1978,83,65,1135,2,37435,21072,33852,15990
50500,505,50500,0,0,0,0,0,0,0,0,0,0,0,0,136,16024,146,16034,309,309,304,294,3528,378,1977,83,65,1135,2,37435,21073,33852,16024
50600,506,50600,0,0,0,0,0,0,0,0,0,0,0,0,136,16058,147,16069,309,309,304,294,3529,378,1977,83,65,1135,2,37435,21074,33852,16058
50700,507,50700,0,0,0,0,0,0,0,0,0,0,0,0,135,16092,147,16104,309,309,304,294,3531,378,1976,83,65,1135,2,37436,21075,33852,16092
50800,508,50800,0,0,0,0,0,0,0,0,0,0,0,0,134,16126,147,16139,309,309,304,294,3533,378,1975,83,65,1135,2,37436,21075,33852,16126
50900,509,50900,0,0,0,0,0,0,0,0,0,0,0,0,134,16160,148,16174,309,309,304,294,3535,378,1975,83,65,1135,2,37437,21076,33852,16160
51000,510,51000,0,0,0,0,0,0,0,0,0,0,0,0,133,16193,138,16198,309,309,304,294,3537,377,1974,82,65,1135,2,37437,21077,33852,16193
51100,511,51100,0,0,0,0,0,0,0,0,0,0,0,0,133,16227,139,16233,309,309,304,294,3539,377,1973,82,65,1135,2,37437,21078,33852,16227
51200,512,51200,0,0,0,0,0,0,0,0,0,0,0,0,132,16261,139,16268,309,309,304,294,3540,377,1973,82,65,1135,2,37438,21079,33852,16261
51300,513,51300,0,0,0,0,0,0,0,0,0,0,0,0,132,16295,140,16303,309,309,304,294,3542,377,1972,82,65,1135,2,37438,21080,33852,16295
51400,514,51400,0,0,0,0,0,0,0,0,0,0,0,0,131,16329,140,16338,309,309,304,294,3545,377,1971,82,65,1135,2,37439,21081,33852,16329
51500,515,51500,0,0,0,0,0,0,0,0,0,0,0,0,131,16363,141,16373,309,309,304,294,3547,376,1971,82,65,1135,2,37439,21082,33852,16363
51600,516,51600,0,0,0,0,0,0,0,0,0,0,0,0,130,16397,141,16408,309,309,304,294,3549,376,1970,82,65,1135,2,37439,21083,33852,16397
51700,517,51700,0,0,0,0,0,0,0,0,0,0,0,0,129,16430,141,16442,309,309,304,294,3551,376,1969,82,65,1135,2,37440,21084,33852,16430
51800,518,51800,0,0,0,0,0,0,0,0,0,0,0,0,129,16464,142,16477,309,309,304,294,3553,376,1969,82,65,1135,2,37440,21085,33852,16464
51900,519,51900,0,0,0,0,0,0,0,0,0,0,0,0,128,16498,142,16512,309,309,304,294,3555,375,1968,82,65,1135,2,37441,21085,33852,16498
52000,520,52000,0,0,0,0,0,0,0,0,0,0,0,0,128,16532,133,16537,309,309,304,294,3558,375,1968,82,65,1135,2,37441,21086,33852,16532
52100,521,52100,0,0,0,0,0,0,0,0,0,0,0,0,127,16566,133,16572,309,309,304,294,3560,375,1967,82,65,1135,2,37442,21087,33852,16566
52200,522,52200,0,0,0,0,0,0,0,0,0,0,0,0,127,16600,134,16607,309,309,304,294,3563,375,1966,82,65,1135,2,37442,21088,33852,16600
52300,523,52300,0,0,0,0,0,0,0,0,0,0,0,0,126,16634,134,16642,309,309,304,294,3565,375,1966,82,65,1135,2,37443,21089,33852,16634
52400,524,52400,0,0,0,0,0,0,0,0,0,0,0,0,126,16667,135,16676,309,309,304,294,3567,374,1965,82,65,1135,2,37443,21090,33852,16667
52500,525,52500,0,0,0,0,0,0,0,0,0,0,0,0,125,16701,135,16711,309,309,304,294,3570,374,1964,82,65,1135,2,37444,21091,33852,16701
52600,526,52600,0,0,0,0,0,0,0,0,0,0,0,0,125,16735,136,16746,309,309,304,294,3573,374,1964,82,65,1135,2,37444,21092,33852,16735
52700,527,52700,0,0,0,0,0,0,0,0,0,0,0,0,124,16769,136,16781,309,309,304,294,3575,374,1963,82,65,1135,2,37445,21092,33852,16769
52800,528,52800,0,0,0,0,0,0,0,0,0,0,0,0,124,16803,137,16816,309,309,304,294,3578,374,1963,82,65,1135,2,37445,21093,33852,16803
52900,529,52900,0,0,0,0,0,0,0,0,0,0,0,0,123,16837,137,16851,309,309,304,294,3581,373,1962,82,65,1135,2,37446,21094,33852,16837
53000,530,53000,0,0,0,0,0,0,0,0,0,0,0,0,122,16870,127,16875,309,309,304,294,3583,373,1961,82,65,1135,2,37446,21095,33852,16870
53100,531,53100,0,0,0,0,0,0,0,0,0,0,0,0,122,16904,128,16910,309,309,304,294,3586,373,1961,82,65,1135,2,37447,21096,33852,16904
53200,532,53200,0,0,0,0,0,0,0,0,0,0,0,0,121,16938,128,16945,309,309,304,294,3589,373,1960,82,65,1135,2,37447,21097,33852,16938
53300,533,53300,0,0,0,0,0,0,0,0,0,0,0,0,121,16972,129,16980,309,309,304,294,3592,372,1959,82,65,1135,2,37448,21097,33852,16972
53400,534,53400,0,0,0,0,0,0,0,0,0,0,0,0,120,17006,129,17015,309,309,304,294,3595,372,1959,82,65,1135,2,37449,21098,33852,17006
53500,535,53500,0,0,0,0,0,0,0,0,0,0,0,0,120,17040,130,17050,309,309,304,294,3598,372,1958,82,65,1135,2,37449,21099,33852,17040
53600,536,53600,0,0,0,0,0,0,0,0,0,0,0,0,119,17074,130,17085,309,309,304,294,3601,372,1958,82,65,1135,2,37450,21100,33852,17074
53700,537,53700,0,0,0,0,0,0,0,0,0,0,0,0,119,17107,131,17119,309,309,304,294,3604,372,1957,82,65,1135,2,37450,21101,33852,17107
53800,538,53800,0,0,0,0,0,0,0,0,0,0,0,0,118,17141,131,17154,309,309,304,294,3607,371,1956,82,65,1135,2,37451,21101,33852,17141
53900,539,53900,0,0,0,0,0,0,0,0,0,0,0,0,118,17175,132,17189,309,309,304,294,3610,371,1956,82,65,1135,2,37452,21102,33852,17175
54000,540,54000,0,0,0,0,0,0,0,0,0,0,0,0,117,17209,122,17214,309,309,304,294,3613,371,1955,81,65,1135,2,37452,21103,33852,17209
54100,541,54100,0,0,0,0,0,0,0,0,0,0,0,0,117,17243,123,17249,309,309,304,294,3616,371,1955,81,65,1135,2,37453,21104,33852,17243
54200,542,54200,0,0,0,0,0,0,0,0,0,0,0,0,116,17277,123,17284,309,309,304,294,3620,370,1954,81,65,1135,2,37454,21105,33852,17277
54300,543,54300,0,0,0,0,0,0,0,0,0,0,0,0,116,17311,124,17319,309,309,304,294,3623,370,1953,81,65,1135,2,37454,21105,33852,17311
54400,544,54400,0,0,0,0,0,0,0,0,0,0,0,0,115,17344,124,17353,309,309,304,294,3626,370,1953,81,65,1135,2,37455,21106,33852,17344
54500,545,54500,0,0,0,0,0,0,0,0,0,0,0,0,115,17378,125,17388,309,309,304,294,3629,370,1952,81,65,1135,2,37455,21107,33852,17378
54600,546,54600,0,0,0,0,0,0,0,0,0,0,0,0,114,17412,125,17423,309,309,304,294,3633,370,1952,81,65,1135,2,37456,21107,33852,17412
54700,547,54700,0,0,0,0,0,0,0,0,0,0,0,0,114,17446,126,17458,309,309,304,294,3636,369,1951,81,65,1135,2,37457,21108,33852,17446
54800,548,54800,0,0,0,0,0,0,0,0,0,0,0,0,113,17480,126,17493,309,309,304,294,3640,369,1951,81,65,1135,2,37458,21109,33852,17480
54900,549,54900,0,0,0,0,0,0,0,0,0,0,0,0,113,17514,127,17528,309,309,304,294,3643,369,1950,81,65,1135,2,37458,21110,33852,17514
55000,550,55000,0,0,0,0,0,0,0,0,0,0,0,0,113,17548,118,17553,309,309,304,294,3647,369,1949,81,65,1135,2,37459,21110,33852,17548
55100,551,55100,0,0,0,0,0,0,0,0,0,0,0,0,112,17581,118,17587,309,309,304,294,3650,368,1949,81,65,1135,2,37460,21111,33852,17581
55200,552,55200,0,0,0,0,0,0,0,0,0,0,0,0,112,17615,119,17622,309,309,304,294,3654,368,1948,81,65,1135,2,37460,21112,33852,17615
55300,553,55300,0,0,0,0,0,0,0,0,0,0,0,0,111,17649,119,17657,309,309,304,294,3658,368,1948,81,65,1135,2,37461,21112,33852,17649
55400,554,55400,0,0,0,0,0,0,0,0,0,0,0,0,111,17683,120,17692,309,309,304,294,3661,368,1947,81,65,1135,2,37462,21113,33852,17683
55500,555,55500,0,0,0,0,0,0,0,0,0,0,0,0,110,17717,120,17727,309,309,304,294,3665,367,1947,81,65,1135,2,37463,21114,33852,17717
55600,556,55600,0,0,0,0,0,0,0,0,0,0,0,0,110,17751,121,17762,309,309,304,294,3669,367,1946,81,65,1135,2,37463,21114,33852,17751
55700,557,55700,0,0,0,0,0,0,0,0,0,0,0,0,109,17784,121,17796,309,309,304,294,3672,367,1945,81,65,1135,2,37464,21115,33852,17784
55800,558,55800,0,0,0,0,0,0,0,0,0,0,0,0,109,17818,122,17831,309,309,304,294,3676,367,1945,81,65,1135,2,37465,21116,33852,17818
55900,559,55900,0,0,0,0,0,0,0,0,0,0,0,0,108,17852,122,17866,309,309,304,294,3680,366,1944,81,65,1135,2,37466,21116,33852,17852
56000,560,56000,0,0,0,0,0,0,0,0,0,0,0,0,108,17886,113,17891,309,309,304,294,3684,366,1944,81,65,1135,2,37466,21117,33852,17886
56100,561,56100,0,0,0,0,0,0,0,0,0,0,0,0,107,17920,113,17926,309,309,304,294,3688,366,1943,81,65,1135,2,37467,21118,33852,17920
56200,562,56200,0,0,0,0,0,0,0,0,0,0,0,0,107,17954,114,17961,309,309,304,294,3692,366,1943,81,65,1135,2,37468,21118,33852,17954
56300,563,56300,0,0,0,0,0,0,0,0,0,0,0,0,106,17988,114,17996,309,309,304,294,3696,366,1942,81,65,1135,2,37469,21119,33852,17988
56400,564,56400,0,0,0,0,0,0,0,0,0,0,0,0,106,18021,115,18030,309,309,304,294,3700,365,1942,81,65,1135,2,37470,21120,33852,18021
56500,565,56500,0,0,0,0,0,0,0,0,0,0,0,0,106,18055,116,18065,309,309,304,294,3704,365,1941,81,65,1135,2,37470,21120,33852,18055
56600,566,56600,0,0,0,0,0,0,0,0,0,0,0,0,105,18089,116,18100,309,309,304,294,3708,365,1940,81,65,1135,2,37471,21121,33852,18089
56700,567,56700,0,0,0,0,0,0,0,0,0,0,0,0,105,18123,117,18135,309,309,304,294,3712,365,1940,81,65,1135,2,37472,21121,33852,18123
56800,568,56800,0,0,0,0,0,0,0,0,0,0,0,0,104,18157,117,18170,309,309,304,294,3716,364,1939,81,65,1135,2,37473,21122,33852,18157
56900,569,56900,0,0,0,0,0,0,0,0,0,0,0,0,104,18191,118,18205,309,309,304,294,3720,364,1939,81,65,1135,2,37474,21122,33852,18191
57000,570,57000,0,0,0,0,0,0,0,0,0,0,0,0,103,18225,108,18230,309,309,304,294,3724,364,1938,80,65,1135,2,37474,21123,33852,18225
57100,571,57100,0,0,0,0,0,0,0,0,0,0,0,0,103,18258,109,18264,309,309,304,294,3728,364,1938,80,65,1135,2,37475,21124,33852,18258
57200,572,57200,0,0,0,0,0,0,0,0,0,0,0,0,102,18292,109,18299,309,309,304,294,3733,363,1937,80,65,1135,2,37476,21124,33852,18292
57300,573,57300,0,0,0,0,0,0,0,0,0,0,0,0,102,18326,110,18334,309,309,304,294,3737,363,1937,80,65,1135,2,37477,21125,33852,18326
57400,574,57400,0,0,0,0,0,0,0,0,0,0,0,0,102,18360,111,18369,309,309,304,294,3741,363,1936,80,65,1135,2,37478,21125,33852,18360
57500,575,57500,0,0,0,0,0,0,0,0,0,0,0,0,101,18394,111,18404,309,309,304,294,3745,363,1936,80,65,1135,2,37479,21126,33852,18394
57600,576,57600,0,0,0,0,0,0,0,0,0,0,0,0,101,18428,112,18439,309,309,304,294,3750,362,1935,80,65,1135,2,37480,21126,33852,18428
57700,577,57700,0,0,0,0,0,0,0,0,0,0,0,0,100,18462,112,18474,309,309,304,294,3754,362,1935,80,65,1135,2,37480,21127,33852,18462
57800,578,57800,0,0,0,0,0,0,0,0,0,0,0,0,100,18495,113,18508,309,309,304,294,3758,362,1934,80,65,1135,2,37481,21127,33852,18495
57900,579,57900,0,0,0,0,0,0,0,0,0,0,0,0,99,18529,113,18543,309,309,304,294,3763,362,1934,80,65,1135,2,37482,21128,33852,18529
58000,580,58000,0,0,0,0,0,0,0,0,0,0,0,0,99,18563,104,18568,309,309,304,294,3767,361,1933,80,65,1135,2,37483,21128,33852,18563
58100,581,58100,0,0,0,0,0,0,0,0,0,0,0,0,99,18597,105,18603,309,309,304,294,3772,361,1933,80,65,1135,2,37484,21129,33852,18597
58200,582,58200,0,0,0,0,0,0,0,0,0,0,0,0,98,18631,105,18638,309,309,304,294,3776,361,1932,80,65,1135,2,37485,21129,33852,18631
58300,583,58300,0,0,0,0,0,0,0,0,0,0,0,0,98,18665,106,18673,309,309,304,294,3781,361,1932,80,65,1135,2,37486,21129,33852,18665
58400,584,58400,0,0,0,0,0,0,0,0,0,0,0,0,97,18699,106,18708,309,309,304,294,3785,360,1931,80,65,1135,2,37487,21130,33852,18699
58500,585,58500,0,0,0,0,0,0,0,0,0,0,0,0,97,18732,107,18742,309,309,304,294,3790,360,1931,80,65,1135,2,37488,21130,33852,18732
58600,586,58600,0,0,0,0,0,0,0,0,0,0,0,0,97,18766,108,18777,309,309,304,294,3794,360,1930,80,65,1135,2,37488,21131,33852,18766
58700,587,58700,0,0,0,0,0,0,0,0,0,0,0,0,96,18800,108,18812,309,309,304,294,3799,360,1930,80,65,1135,2,37489,21131,33852,18800
58800,588,58800,0,0,0,0,0,0,0,0,0,0,0,0,96,18834,109,18847,309,309,304,294,3803,360,1929,80,65,1135,2,37490,21131,33852,18834
58900,589,58900,0,0,0,0,0,0,0,0,0,0,0,0,95,18868,109,18882,309,309,304,294,3808,359,1929,80,65,1135,2,37491,21132,33852,18868
59000,590,59000,0,0,0,0,0,0,0,0,0,0,0,0,95,18902,100,18907,309,309,304,294,3813,359,1928,80,65,1135,2,37492,21132,33852,18902
59100,591,59100,0,0,0,0,0,0,0,0,0,0,0,0,95,18935,101,18941,309,309,304,294,3817,359,1928,80,65,1135,2,37493,21133,33852,18935
59200,592,59200,0,0,0,0,0,0,0,0,0,0,0,0,94,18969,101,18976,309,309,304,294,3822,359,1927,80,65,1135,2,37494,21133,33852,18969
59300,593,59300,0,0,0,0,0,0,0,0,0,0,0,0,94,19003,102,19011,309,309,304,294,3827,358,1927,80,65,1135,2,37495,21133,33852,19003
59400,594,59400,0,0,0,0,0,0,0,0,0,0,0,0,93,19037,102,19046,309,309,304,294,3831,358,1926,80,65,1135,2,37496,21134,33852,19037
59500,595,59500,0,0,0,0,0,0,0,0,0,0,0,0,93,19071,103,19081,309,309,304,294,3836,358,1926,80,65,1135,2,37497,21134,33852,19071
59600,596,59600,0,0,0,0,0,0,0,0,0,0,0,0,93,19105,104,19116,309,309,304,294,3841,358,1926,80,65,1135,2,37498,21134,33852,19105
59700,597,59700,0,0,0,0,0,0,0,0,0,0,0,0,92,19139,104,19151,309,309,304,294,3845,357,1925,80,65,1135,2,37499,21135,33852,19139
59800,598,59800,0,0,0,0,0,0,0,0,0,0,0,0,92,19172,105,19185,309,309,304,294,3850,357,1925,80,65,1135,2,37500,21135,33852,19172
59900,599,59900,0,0,0,0,0,0,0,0,0,0,0,0,91,19206,105,19220,309,309,304,294,3855,357,1924,80,65,1135,2,37501,21135,33852,19206
60000,600,60000,-72,0,0,0,0,0,-72,0,0,0,0,0,91,19239,96,19244,309,309,304,294,3860,357,1924,79,65,1136,3,37502,21136,33052,19239
60100,601,60100,-69,0,0,0,0,0,-69,0,0,0,0,0,91,19272,97,19278,309,309,304,294,3865,356,1923,79,65,1136,3,37503,21136,32284,19272
60200,602,60200,-66,0,0,0,0,0,-67,0,0,0,0,0,90,19303,97,19310,309,309,304,294,3869,356,1923,79,65,1136,3,37503,21136,31548,19303
60300,603,60300,-63,0,0,0,0,0,-64,0,0,0,0,0,90,19334,98,19342,309,309,304,294,3874,356,1923,79,65,1136,3,37504,21136,30840,19334
60400,604,60400,-61,0,0,0,0,0,-61,0,0,0,0,0,90,19364,99,19373,309,309,304,294,3879,356,1922,79,65,1136,3,37505,21137,30159,19364
60500,605,60500,-58,0,0,0,0,0,-59,0,0,0,0,0,89,19394,99,19404,309,309,304,294,3884,355,1922,79,65,1136,3,37506,21137,29504,19394
60600,606,60600,-56,0,0,0,0,0,-57,0,0,0,0,0,89,19423,100,19434,309,309,304,294,3889,355,1921,79,65,1136,3,37507,21137,28873,19423
60700,607,60700,-54,0,0,0,0,0,-55,0,0,0,0,0,89,19451,101,19463,308,308,303,293,3894,355,1921,79,65,1136,3,37508,21137,28264,19451
60800,608,60800,-52,0,0,0,0,0,-53,0,0,0,0,0,88,19478,101,19491,308,308,303,293,3899,355,1920,79,65,1136,3,37509,21137,27677,19478
60900,609,60900,-50,0,0,0,0,0,-51,0,0,0,0,0,88,19506,102,19520,308,308,303,293,3904,354,1920,79,65,1136,3,37510,21138,27109,19506
61000,610,61000,-49,0,0,0,0,0,-49,0,0,0,0,0,88,19532,93,19537,308,308,303,293,3908,354,1920,79,65,1136,3,37511,21138,26561,19532
61100,611,61100,-47,0,0,0,0,0,-48,0,0,0,0,0,87,19558,93,19564,308,308,303,293,3913,354,1919,79,65,1136,3,37512,21138,26031,19558
61200,612,61200,-46,0,0,0,0,0,-46,0,0,0,0,0,87,19584,94,19591,308,308,303,293,3918,354,1919,79,65,1136,3,37513,21138,25518,19584
61300,613,61300,-44,0,0,0,0,0,-45,0,0,0,0,0,87,19609,95,19617,308,308,303,293,3923,353,1918,79,65,1136,3,37514,21138,25021,19609
61400,614,61400,-43,0,0,0,0,0,-43,0,0,0,0,0,87,19633,96,19642,308,308,303,293,3928,353,1918,79,65,1136,3,37515,21138,24539,19633
61500,615,61500,-42,0,0,0,0,0,-42,0,0,0,0,0,86,19657,96,19667,308,308,303,293,3933,353,1918,79,65,1136,3,37516,21139,24072,19657
61600,616,61600,-40,0,0,0,0,0,-41,0,0,0,0,0,86,19681,97,19692,308,308,303,293,3938,353,1917,79,65,1136,3,37517,21139,23619,19681
61700,617,61700,-39,0,0,0,0,0,-39,0,0,0,0,0,86,19704,98,19716,308,308,303,293,3943,352,1917,79,65,1136,3,37518,21139,23179,19704
61800,618,61800,-38,0,0,0,0,0,-38,0,0,0,0,0,86,19727,99,19740,308,308,303,293,3948,352,1917,79,65,1136,3,37519,21139,22752,19727
61900,619,61900,-37,0,0,0,0,0,-37,0,0,0,0,0,85,19749,99,19763,308,308,303,293,3953,352,1916,79,65,1136,3,37520,21139,22337,19749
62000,620,62000,-36,0,0,0,0,0,-36,0,0,0,0,0,85,19771,90,19776,308,308,303,293,3958,352,1916,79,65,1136,3,37521,21139,21933,19771
62100,621,62100,-35,0,0,0,0,0,-35,0,0,0,0,0,85,19793,91,19799,308,308,303,293,3963,351,1915,79,65,1136,3,37522,21139,21541,19793
62200,622,62200,-34,0,0,0,0,0,-34,0,0,0,0,0,85,19814,92,19821,308,308,303,293,3968,351,1915,79,65,1136,3,37523,21139,21158,19814
62300,623,62300,-33,0,0,0,0,0,-33,0,0,0,0,0,84,19835,92,19843,308,308,303,293,3973,351,1915,79,65,1136,3,37524,21139,20786,19835
62400,624,62400,-32,0,0,0,0,0,-32,0,0,0,0,0,84,19855,93,19864,308,308,303,293,3978,351,1914,79,65,1136,3,37525,21139,20423,19855
62500,625,62500,-31,0,0,0,0,0,-32,0,0,0,0,0,84,19875,94,19885,308,308,303,293,3983,350,1914,79,65,1136,3,37526,21139,20070,19875
62600,626,62600,-31,0,0,0,0,0,-31,0,0,0,0,0,84,19895,95,19906,308,308,303,293,3988,350,1914,79,65,1136,3,37527,21139,19725,19895
62700,627,62700,-30,0,0,0,0,0,-30,0,0,0,0,0,84,19914,96,19926,308,308,303,293,3993,350,1913,79,65,1136,3,37528,21139,19388,19914
62800,628,62800,-29,0,0,0,0,0,-29,0,0,0,0,0,83,19933,96,19946,308,308,303,293,3998,350,1913,79,65,1136,3,37529,21139,19060,19933
62900,629,62900,-28,0,0,0,0,0,-29,0,0,0,0,0,83,19952,97,19966,308,308,303,293,4003,349,1913,79,65,1136,3,37530,21139,18739,19952
63000,630,63000,-28,0,0,0,0,0,-28,0,0,0,0,0,83,19970,88,19975,308,308,303,293,4008,349,1912,78,65,1136,3,37531,21139,18426,19970
63100,631,63100,-27,0,0,0,0,0,-27,0,0,0,0,0,83,19989,89,19995,308,308,303,293,4013,349,1912,78,65,1136,3,37532,21139,18120,19989
63200,632,63200,-26,0,0,0,0,0,-27,0,0,0,0,0,83,20006,90,20013,308,308,303,293,4018,349,1912,78,65,1136,3,37533,21139,17821,20006
63300,633,63300,-26,0,0,0,0,0,-26,0,0,0,0,0,82,20024,90,20032,308,308,303,293,4023,348,1911,78,65,1136,3,37534,21139,17528,20024
63400,634,63400,-25,0,0,0,0,0,-26,0,0,0,0,0,82,20041,91,20050,308,308,303,293,4028,348,1911,78,65,1136,3,37535,21139,17242,20041
63500,635,63500,-25,0,0,0,0,0,-25,0,0,0,0,0,82,20058,92,20068,308,308,303,293,4033,348,1911,78,65,1136,3,37536,21139,16962,20058
63600,636,63600,-24,0,0,0,0,0,-24,0,0,0,0,0,82,20075,93,20086,308,308,303,293,4038,348,1910,78,65,1136,3,37537,21139,16687,20075
63700,637,63700,-24,0,0,0,0,0,-24,0,0,0,0,0,82,20091,94,20103,308,308,303,293,4043,347,1910,78,65,1136,3,37538,21139,16419,20091
63800,638,63800,-23,0,0,0,0,0,-23,0,0,0,0,0,82,20107,95,20120,308,308,303,293,4048,347,1910,78,65,1136,3,37539,21139,16156,20107
63900,639,63900,-23,0,0,0,0,0,-23,0,0,0,0,0,81,20123,95,20137,308,308,303,293,4053,347,1910,78,65,1136,3,37540,21139,15898,20123
64000,640,64000,-22,0,0,0,0,0,-23,0,0,0,0,0,81,20139,86,20144,308,308,303,293,4058,347,1909,78,65,1136,3,37541,21139,15645,20139
64100,641,64100,-22,0,0,0,0,0,-22,0,0,0,0,0,81,20154,87,20160,308,308,303,293,4063,346,1909,78,65,1136,3,37542,21139,15397,20154
64200,642,64200,-21,0,0,0,0,0,-22,0,0,0,0,0,81,20170,88,20177,308,308,303,293,4068,346,1909,78,65,1136,3,37543,21139,15153,20170
64300,643,64300,-21,0,0,0,0,0,-21,0,0,0,0,0,81,20184,89,20192,308,308,303,293,4073,346,1908,78,65,1136,3,37544,21138,14915,20184
64400,644,64400,-21,0,0,0,0,0,-21,0,0,0,0,0,81,20199,90,20208,308,308,303,293,4078,346,1908,78,65,1136,3,37545,21138,14680,20199
64500,645,64500,-20,0,0,0,0,0,-20,0,0,0,0,0,80,20214,90,20224,308,308,303,293,4083,345,1908,78,65,1136,3,37546,21138,14450,20214
64600,646,64600,-20,0,0,0,0,0,-20,0,0,0,0,0,80,20228,91,20239,308,308,303,293,4087,345,1908,78,65,1136,3,37547,21138,14224,20228
64700,647,64700,-19,0,0,0,0,0,-20,0,0,0,0,0,80,20242,92,20254,308,308,303,293,4092,345,1907,78,65,1136,3,37548,21138,14002,20242
64800,648,64800,-19,0,0,0,0,0,-19,0,0,0,0,0,80,20256,93,20269,308,308,303,293,4097,345,1907,78,65,1136,3,37549,21138,13784,20256
64900,649,64900,-19,0,0,0,0,0,-19,0,0,0,0,0,80,20269,94,20283,308,308,303,293,4102,344,1907,78,65,1136,3,37550,21137,13569,20269
65000,650,65000,-19,0,0,0,0,0,-19,0,0,0,0,0,80,20283,85,20288,308,308,303,293,4107,344,1907,78,65,1136,3,37551,21137,13359,20283
65100,651,65100,-18,0,0,0,0,0,-18,0,0,0,0,0,80,20296,86,20302,308,308,303,293,4112,344,1906,78,65,1136,3,37552,21137,13151,20296
65200,652,65200,-18,0,0,0,0,0,-18,0,0,0,0,0,80,20309,87,20316,308,308,303,293,4117,344,1906,78,65,1136,3,37553,21137,12947,20309
65300,653,65300,-18,0,0,0,0,0,-18,0,0,0,0,0,79,20321,87,20329,308,308,303,293,4122,343,1906,78,65,1136,3,37554,21136,12746,20321
65400,654,65400,-17,0,0,0,0,0,-17,0,0,0,0,0,79,20334,88,20343,308,308,303,293,4127,343,1906,78,65,1136,3,37555,21136,12549,20334
65500,655,65500,-17,0,0,0,0,0,-17,0,0,0,0,0,79,20346,89,20356,308,308,303,293,4131,343,1905,78,65,1136,3,37556,21136,12354,20346
65600,656,65600,-17,0,0,0,0,0,-17,0,0,0,0,0,79,20358,90,20369,308,308,303,293,4136,343,1905,78,65,1136,3,37557,21136,12163,20358
65700,657,65700,-16,0,0,0,0,0,-17,0,0,0,0,0,79,20370,91,20382,308,308,303,293,4141,342,1905,78,65,1136,3,37558,21135,11974,20370
65800,658,65800,-16,0,0,0,0,0,-16,0,0,0,0,0,79,20382,92,20395,308,308,303,293,4146,342,1905,78,65,1136,3,37559,21135,11788,20382
65900,659,65900,-16,0,0,0,0,0,-16,0,0,0,0,0,79,20394,93,20408,308,308,303,293,4151,342,1905,78,65,1136,3,37560,21135,11605,20394
66000,660,66000,-16,0,0,0,0,0,-16,0,0,0,0,0,79,20405,84,20410,308,308,303,293,4155,342,1904,77,65,1136,3,37561,21135,11424,20405
66100,661,66100,-16,0,0,0,0,0,-16,0,0,0,0,0,78,20416,84,20422,308,308,303,293,4160,341,1904,77,65,1136,3,37562,21134,11246,20416
66200,662,66200,-15,0,0,0,0,0,-16,0,0,0,0,0,78,20428,85,20435,308,308,303,293,4165,341,1904,77,65,1136,3,37563,21134,11070,20428
66300,663,66300,-15,0,0,0,0,0,-15,0,0,0,0,0,78,20438,86,20446,308,308,303,293,4169,341,1904,77,65,1136,3,37563,21134,10897,20438
66400,664,66400,-15,0,0,0,0,0,-15,0,0,0,0,0,78,20449,87,20458,308,308,303,293,4174,341,1904,77,65,1136,3,37564,21133,10726,20449
66500,665,66500,-15,0,0,0,0,0,-15,0,0,0,0,0,78,20460,88,20470,307,307,302,292,4179,340,1903,77,65,1136,3,37565,21133,10558,20460
66600,666,66600,-14,0,0,0,0,0,-15,0,0,0,0,0,78,20470,89,20481,307,307,302,292,4183,340,1903,77,65,1136,3,37566,21132,10392,20470
66700,667,66700,-14,0,0,0,0,0,-14,0,0,0,0,0,78,20480,90,20492,307,307,302,292,4188,340,1903,77,65,1136,3,37567,21132,10227,20480
66800,668,66800,-14,0,0,0,0,0,-14,0,0,0,0,0,78,20490,91,20503,307,307,302,292,4193,340,1903,77,65,1136,3,37568,21132,10065,20490
66900,669,66900,-14,0,0,0,0,0,-14,0,0,0,0,0,78,20500,92,20514,307,307,302,292,4197,339,1903,77,65,1136,3,37569,21131,9905,20500
67000,670,67000,-14,0,0,0,0,0,-14,0,0,0,0,0,78,20510,83,20515,307,307,302,292,4202,339,1903,77,65,1136,3,37570,21131,9747,20510
67100,671,67100,-14,0,0,0,0,0,-14,0,0,0,0,0,77,20520,83,20526,307,307,302,292,4206,339,1902,77,65,1136,3,37571,21131,9590,20520
67200,672,67200,-13,0,0,0,0,0,-14,0,0,0,0,0,77,20529,84,20536,307,307,302,292,4211,339,1902,77,65,1136,3,37572,21130,9436,20529
67300,673,67300,-13,0,0,0,0,0,-13,0,0,0,0,0,77,20538,85,20546,307,307,302,292,4216,338,1902,77,65,1136,3,37573,21130,9283,20538
67400,674,67400,-13,0,0,0,0,0,-13,0,0,0,0,0,77,20547,86,20556,307,307,302,292,4220,338,1902,77,65,1136,3,37574,21129,9132,20547
67500,675,67500,-13,0,0,0,0,0,-13,0,0,0,0,0,77,20556,87,20566,307,307,302,292,4225,338,1902,77,65,1136,3,37575,21129,8983,20556
67600,676,67600,-13,0,0,0,0,0,-13,0,0,0,0,0,77,20565,88,20576,307,307,302,292,4229,338,1902,77,65,1136,3,37575,21128,8836,20565
67700,677,67700,-13,0,0,0,0,0,-13,0,0,0,0,0,77,20574,89,20586,307,307,302,292,4233,337,1901,77,65,1136,3,37576,21128,8690,20574
67800,678,67800,-12,0,0,0,0,0,-13,0,0,0,0,0,77,20583,90,20596,307,307,302,292,4238,337,1901,77,65,1136,3,37577,21127,8545,20583
67900,679,67900,-12,0,0,0,0,0,-12,0,0,0,0,0,77,20591,91,20605,307,307,302,292,4242,337,1901,77,65,1136,3,37578,21127,8403,20591
68000,680,68000,-12,0,0,0,0,0,-12,0,0,0,0,0,77,20599,82,20604,307,307,302,292,4247,337,1901,77,65,1136,3,37579,21126,8261,20599
68100,681,68100,-12,0,0,0,0,0,-12,0,0,0,0,0,77,20607,83,20613,307,307,302,292,4251,336,1901,77,65,1136,3,37580,21126,8121,20607
68200,682,68200,-12,0,0,0,0,0,-12,0,0,0,0,0,77,20615,84,20622,307,307,302,292,4255,336,1901,77,65,1136,3,37581,21125,7983,20615
68300,683,68300,-12,0,0,0,0,0,-12,0,0,0,0,0,76,20623,84,20631,307,307,302,292,4259,336,1901,77,65,1136,3,37581,21125,7846,20623
68400,684,68400,-12,0,0,0,0,0,-12,0,0,0,0,0,76,20631,85,20640,307,307,302,292,4264,336,1901,77,65,1136,3,37582,21124,7710,20631
68500,685,68500,-12,0,0,0,0,0,-12,0,0,0,0,0,76,20638,86,20648,307,307,302,292,4268,336,1901,77,65,1136,3,37583,21124,7575,20638
68600,686,68600,-11,0,0,0,0,0,-12,0,0,0,0,0,76,20646,87,20657,307,307,302,292,4272,335,1900,77,65,1136,3,37584,21123,7442,20646
68700,687,68700,-11,0,0,0,0,0,-11,0,0,0,0,0,76,20653,88,20665,307,307,302,292,4276,335,1900,77,65,1136,3,37585,21123,7310,20653
68800,688,68800,-11,0,0,0,0,0,-11,0,0,0,0,0,76,20660,89,20673,307,307,302,292,4281,335,1900,77,65,1136,3,37586,21122,7179,20660
68900,689,68900,-11,0,0,0,0,0,-11,0,0,0,0,0,76,20667,90,20681,307,307,302,292,4285,335,1900,77,65,1136,3,37587,21122,7050,20667
69000,690,69000,-11,0,0,0,0,0,-11,0,0,0,0,0,76,20674,81,20679,307,307,302,292,4289,334,1900,76,65,1136,3,37587,21121,6921,20674
69100,691,69100,-11,0,0,0,0,0,-11,0,0,0,0,0,76,20681,82,20687,307,307,302,292,4293,334,1900,76,65,1136,3,37588,21120,6794,20681
69200,692,69200,-11,0,0,0,0,0,-11,0,0,0,0,0,76,20688,83,20695,307,307,302,292,4297,334,1900,76,65,1136,3,37589,21120,6667,20688
69300,693,69300,-11,0,0,0,0,0,-11,0,0,0,0,0,76,20694,84,20702,307,307,302,292,4301,334,1900,76,65,1136,3,37590,21119,6542,20694
69400,694,69400,-11,0,0,0,0,0,-11,0,0,0,0,0,76,20701,85,20710,307,307,302,292,4305,333,1900,76,65,1136,3,37591,21119,6418,20701
69500,695,69500,-11,0,0,0,0,0,-11,0,0,0,0,0,76,20707,86,20717,307,307,302,292,4309,333,1900,76,65,1136,3,37591,21118,6294,20707
69600,696,69600,-10,0,0,0,0,0,-11,0,0,0,0,0,76,20713,87,20724,307,307,302,292,4313,333,1900,76,65,1136,3,37592,21117,6172,20713
69700,697,69700,-10,0,0,0,0,0,-10,0,0,0,0,0,76,20719,88,20731,307,307,302,292,4317,333,1900,76,65,1136,3,37593,21117,6050,20719
69800,698,69800,-10,0,0,0,0,0,-10,0,0,0,0,0,75,20725,88,20738,307,307,302,292,4320,332,1900,76,65,1136,3,37594,21116,5930,20725
69900,699,69900,-10,0,0,0,0,0,-10,0,0,0,0,0,75,20731,89,20745,307,307,302,292,4324,332,1900,76,65,1136,3,37594,21116,5810,20731
70000,700,70000,-10,0,0,0,0,0,-10,0,0,0,0,0,75,20737,80,20742,307,307,302,292,4328,332,1900,76,65,1136,3,37595,21115,5692,20737
70100,701,70100,-10,0,0,0,0,0,-10,0,0,0,0,0,75,20742,81,20748,307,307,302,292,4332,332,1900,76,65,1136,3,37596,21114,5574,20742
70200,702,70200,-10,0,0,0,0,0,-10,0,0,0,0,0,75,20748,82,20755,307,307,302,292,4335,331,1900,76,65,1136,3,37597,21114,5456,20748
70300,703,70300,-10,0,0,0,0,0,-10,0,0,0,0,0,75,20753,83,20761,307,307,302,292,4339,331,1900,76,65,1136,3,37597,21113,5340,20753
70400,704,70400,-10,0,0,0,0,0,-10,0,0,0,0,0,75,20758,84,20767,307,307,302,292,4343,331,1900,76,65,1136,3,37598,21112,5225,20758
70500,705,70500,-10,0,0,0,0,0,-10,0,0,0,0,0,75,20763,85,20773,307,307,302,292,4346,331,1900,76,65,1136,3,37599,21112,5110,20763
70600,706,70600,-10,0,0,0,0,0,-10,0,0,0,0,0,75,20768,86,20779,307,307,302,292,4350,331,1900,76,65,1136,3,37600,21111,4996,20768
70700,707,70700,-10,0,0,0,0,0,-10,0,0,0,0,0,75,20773,87,20785,307,307,302,292,4354,330,1900,76,65,1136,3,37600,21110,4882,20773
70800,708,70800,-10,0,0,0,0,0,-10,0,0,0,0,0,75,20778,88,20791,307,307,302,292,4357,330,1900,76,65,1136,3,37601,21109,4770,20778
70900,709,70900,-10,0,0,0,0,0,-10,0,0,0,0,0,75,20783,89,20797,307,307,302,292,4361,330,1900,76,65,1136,3,37602,21109,4657,20783
71000,710,71000,-10,0,0,0,0,0,-10,0,0,0,0,0,75,20787,80,20792,306,306,301,291,4364,330,1900,76,65,1136,3,37602,21108,4546,20787
71100,711,71100,-10,0,0,0,0,0,-10,0,0,0,0,0,75,20792,81,20798,306,306,301,291,4367,329,1900,76,65,1136,3,37603,21107,4435,20792
71200,712,71200,-9,0,0,0,0,0,-10,0,0,0,0,0,75,20796,82,20803,306,306,301,291,4371,329,1900,76,65,1136,3,37604,21106,4325,20796
71300,713,71300,-9,0,0,0,0,0,-9,0,0,0,0,0,75,20800,83,20808,306,306,301,291,4374,329,1900,76,65,1136,3,37604,21106,4216,20800
71400,714,71400,-9,0,0,0,0,0,-9,0,0,0,0,0,75,20804,84,20813,306,306,301,291,4377,329,1900,76,65,1136,3,37605,21105,4107,20804
71500,715,71500,-9,0,0,0,0,0,-9,0,0,0,0,0,75,20808,85,20818,306,306,301,291,4381,329,1900,76,65,1136,3,37606,21104,3998,20808
71600,716,71600,-9,0,0,0,0,0,-9,0,0,0,0,0,75,20812,86,20823,306,306,301,291,4384,328,1900,76,65,1136,3,37606,21103,3890,20812
71700,717,71700,-9,0,0,0,0,0,-9,0,0,0,0,0,75,20816,87,20828,306,306,301,291,4387,328,1900,76,65,1136,3,37607,21103,3783,20816
71800,718,71800,-9,0,0,0,0,0,-9,0,0,0,0,0,75,20820,88,20833,306,306,301,291,4390,328,1900,76,65,1136,3,37608,21102,3676,20820
71900,719,71900,-9,0,0,0,0,0,-9,0,0,0,0,0,75,20823,89,20837,306,306,301,291,4393,328,1900,76,65,1136,3,37608,21101,3570,20823
72000,720,72000,-9,0,0,0,0,0,-9,0,0,0,0,0,75,20827,80,20832,306,306,301,291,4396,327,1900,75,65,1136,3,37609,21100,3464,20827
72100,721,72100,-9,0,0,0,0,0,-9,0,0,0,0,0,74,20830,80,20836,306,306,301,291,4399,327,1900,75,65,1136,3,37609,21100,3358,20830
72200,722,72200,-9,0,0,0,0,0,-9,0,0,0,0,0,74,20833,81,20840,306,306,301,291,4402,327,1900,75,65,1136,3,37610,21099,3253,20833
72300,723,72300,-9,0,0,0,0,0,-9,0,0,0,0,0,74,20837,82,20845,306,306,301,291,4405,327,1900,75,65,1136,3,37611,21098,3149,20837
72400,724,72400,-9,0,0,0,0,0,-9,0,0,0,0,0,74,20840,83,20849,306,306,301,291,4408,326,1900,75,65,1136,3,37611,21097,3045,20840
72500,725,72500,-9,0,0,0,0,0,-9,0,0,0,0,0,74,20843,84,20853,306,306,301,291,4411,326,1900,75,65,1136,3,37612,21096,2941,20843
72600,726,72600,-9,0,0,0,0,0,-9,0,0,0,0,0,74,20845,85,20856,306,306,301,291,4414,326,1900,75,65,1136,3,37612,21095,2837,20845
72700,727,72700,-9,0,0,0,0,0,-9,0,0,0,0,0,74,20848,86,20860,306,306,301,291,4417,326,1900,75,65,1136,3,37613,21095,2734,20848
72800,728,72800,-9,0,0,0,0,0,-9,0,0,0,0,0,74,20851,87,20864,306,306,301,291,4419,326,1900,75,65,1136,3,37613,21094,2632,20851
72900,729,72900,-9,0,0,0,0,0,-9,0,0,0,0,0,74,20853,88,20867,306,306,301,291,4422,325,1901,75,65,1136,3,37614,21093,2529,20853
73000,730,73000,-9,0,0,0,0,0,-9,0,0,0,0,0,74,20856,79,20861,306,306,301,291,4425,325,1901,75,65,1136,3,37615,21092,2427,20856
73100,731,73100,-9,0,0,0,0,0,-9,0,0,0,0,0,74,20858,80,20864,306,306,301,291,4427,325,1901,75,65,1136,3,37615,21091,2326,20858
73200,732,73200,-9,0,0,0,0,0,-9,0,0,0,0,0,74,20860,81,20867,306,306,301,291,4430,325,1901,75,65,1136,3,37616,21090,2224,20860
73300,733,73300,-9,0,0,0,0,0,-9,0,0,0,0,0,74,20862,82,20870,306,306,301,291,4432,325,1901,75,65,1136,3,37616,21090,2123,20862
73400,734,73400,-9,0,0,0,0,0,-9,0,0,0,0,0,74,20864,83,20873,306,306,301,291,4435,324,1901,75,65,1136,3,37617,21089,2022,20864
73500,735,73500,-9,0,0,0,0,0,-9,0,0,0,0,0,74,20866,84,20876,306,306,301,291,4437,324,1901,75,65,1136,3,37617,21088,1922,20866
73600,736,73600,-9,0,0,0,0,0,-9,0,0,0,0,0,74,20868,85,20879,306,306,301,291,4440,324,1901,75,65,1136,3,37618,21087,1821,20868
73700,737,73700,-8,0,0,0,0,0,-9,0,0,0,0,0,74,20870,86,20882,306,306,301,291,4442,324,1902,75,65,1136,3,37618,21086,1721,20870
73800,738,73800,-8,0,0,0,0,0,-9,0,0,0,0,0,74,20871,87,20884,306,306,301,291,4444,323,1902,75,65,1136,3,37618,21085,1621,20871
73900,739,73900,-8,0,0,0,0,0,-8,0,0,0,0,0,74,20873,88,20887,306,306,301,291,4447,323,1902,75,65,1136,3,37619,21084,1521,20873
74000,740,74000,-9,0,0,0,0,0,-9,0,0,0,0,0,74,20874,79,20879,306,306,301,291,4449,323,1902,75,65,1136,3,37619,21083,1422,20874
74100,741,74100,-9,0,0,0,0,0,-9,0,0,0,0,0,74,20876,80,20882,306,306,301,291,4451,323,1902,75,65,1136,3,37620,21082,1323,20876
74200,742,74200,-8,0,0,0,0,0,-9,0,0,0,0,0,74,20877,81,20884,306,306,301,291,4453,323,1902,75,65,1136,3,37620,21082,1223,20877
74300,743,74300,-8,0,0,0,0,0,-9,0,0,0,0,0,74,20878,82,20886,306,306,301,291,4455,322,1902,75,65,1136,3,37621,21081,1124,20878
74400,744,74400,-8,0,0,0,0,0,-9,0,0,0,0,0,74,20879,83,20888,306,306,301,291,4457,322,1903,75,65,1136,3,37621,21080,1026,20879
74500,745,74500,-8,0,0,0,0,0,-8,0,0,0,0,0,74,20880,84,20890,306,306,301,291,4459,322,1903,75,65,1136,3,37621,21079,927,20880
74600,746,74600,-8,0,0,0,0,0,-8,0,0,0,0,0,74,20881,85,20892,306,306,301,291,4461,322,1903,75,65,1136,3,37622,21078,828,20881
74700,747,74700,-8,0,0,0,0,0,-8,0,0,0,0,0,74,20882,86,20894,306,306,301,291,4463,322,1903,75,65,1136,3,37622,21077,730,20882
74800,748,74800,-8,0,0,0,0,0,-8,0,0,0,0,0,74,20882,87,20895,306,306,301,291,4465,321,1903,75,65,1136,3,37623,21076,631,20882
74900,749,74900,-8,0,0,0,0,0,-8,0,0,0,0,0,74,20883,88,20897,306,306,301,291,4467,321,1903,75,65,1136,3,37623,21075,533,20883
75000,750,75000,-8,0,0,0,0,0,-9,0,0,0,0,0,74,20883,79,20888,305,305,300,290,4468,321,1904,75,65,1136,3,37623,21074,435,20883
75100,751,75100,-8,0,0,0,0,0,-9,0,0,0,0,0,74,20884,80,20890,305,305,300,290,4470,321,1904,74,65,1136,3,37624,21073,336,20884
75200,752,75200,-8,0,0,0,0,0,-8,0,0,0,0,0,74,20884,81,20891,305,305,300,290,4472,321,1904,74,65,1136,3,37624,21072,238,20884
75300,753,75300,-8,0,0,0,0,0,-8,0,0,0,0,0,74,20884,81,20892,305,305,300,290,4473,320,1904,74,65,1136,3,37624,21071,140,20884
75399,754,75399,-8,0,0,0,0,0,-8,0,0,0,0,0,74,20884,82,20893,305,305,300,290,4475,320,1904,74,65,1136,3,37625,21070,42,20884
75499,755,75499,-8,0,0,0,0,0,-8,0,0,0,0,0,74,20884,83,20894,305,305,300,290,4477,320,1905,74,65,1136,3,37625,21069,55,20884
75599,756,75599,-8,0,0,0,0,0,-8,0,0,0,0,0,74,20884,84,20895,305,305,300,290,4478,320,1905,74,65,1136,3,37625,21068,153,20884
75699,757,75699,-8,0,0,0,0,0,-8,0,0,0,0,0,74,20883,85,20895,305,305,300,290,4479,320,1905,74,65,1136,3,37625,21068,251,20883
75799,758,75799,-8,0,0,0,0,0,-8,0,0,0,0,0,74,20883,86,20896,305,305,300,290,4481,319,1905,74,65,1136,3,37626,21067,349,20883
75899,759,75899,-8,0,0,0,0,0,-8,0,0,0,0,0,74,20883,87,20897,305,305,300,290,4482,319,1905,74,65,1136,3,37626,21066,448,20883
75999,760,75999,-8,0,0,0,0,0,-8,0,0,0,0,0,74,20882,88,20897,305,305,300,290,4483,319,1906,74,65,1136,3,37626,21065,546,20882
76099,761,76099,-8,0,0,0,0,0,-9,0,0,0,0,0,74,20881,79,20887,305,305,300,290,4485,319,1906,74,65,1136,3,37627,21064,644,20881
76199,762,76199,-8,0,0,0,0,0,-9,0,0,0,0,0,74,20881,80,20888,305,305,300,290,4486,319,1906,74,65,1136,3,37627,21063,743,20881
76299,763,76299,-8,0,0,0,0,0,-8,0,0,0,0,0,74,20880,81,20888,305,305,300,290,4487,318,1906,74,65,1136,3,37627,21062,841,20880
76399,764,76399,-8,0,0,0,0,0,-8,0,0,0,0,0,74,20879,82,20888,305,305,300,290,4488,318,1907,74,65,1136,3,37627,21061,939,20879
76499,765,76499,-8,0,0,0,0,0,-8,0,0,0,0,0,74,20878,83,20888,305,305,300,290,4489,318,1907,74,65,1136,3,37627,21060,1038,20878
76599,766,76599,-8,0,0,0,0,0,-8,0,0,0,0,0,74,20877,84,20888,305,305,300,290,4490,318,1907,74,65,1136,3,37628,21059,1137,20877
76699,767,76699,-8,0,0,0,0,0,-8,0,0,0,0,0,74,20876,85,20888,305,305,300,290,4491,318,1907,74,65,1136,3,37628,21058,1236,20876
76799,768,76799,-8,0,0,0,0,0,-8,0,0,0,0,0,74,20874,86,20887,305,305,300,290,4492,317,1908,74,65,1136,3,37628,21057,1335,20874
76899,769,76899,-8,0,0,0,0,0,-8,0,0,0,0,0,74,20873,87,20887,305,305,300,290,4493,317,1908,74,65,1136,3,37628,21056,1434,20873
76999,770,76999,-8,0,0,0,0,0,-8,0,0,0,0,0,74,20871,88,20886,305,305,300,290,4494,317,1908,74,65,1136,3,37628,21055,1533,20871
77099,771,77099,-9,0,0,0,0,0,-9,0,0,0,0,0,74,20870,79,20876,305,305,300,290,4494,317,1909,74,65,1136,3,37628,21054,1633,20870
77199,772,77199,-9,0,0,0,0,0,-9,0,0,0,0,0,74,20868,80,20875,305,305,300,290,4495,317,1909,74,65,1136,3,37629,21053,1733,20868
77299,773,77299,-9,0,0,0,0,0,-9,0,0,0,0,0,74,20866,81,20874,305,305,300,290,4496,316,1909,74,65,1136,3,37629,21052,1833,20866
77399,774,77399,-9,0,0,0,0,0,-9,0,0,0,0,0,74,20864,82,20873,305,305,300,290,4496,316,1909,74,65,1136,3,37629,21051,1933,20864
77499,775,77499,-9,0,0,0,0,0,-9,0,0,0,0,0,74,20862,83,20872,305,305,300,290,4497,316,1910,74,65,1136,3,37629,21050,2033,20862
77599,776,77599,-9,0,0,0,0,0,-9,0,0,0,0,0,74,20860,84,20871,305,305,300,290,4497,316,1910,74,65,1136,3,37629,21049,2134,20860
77699,777,77699,-9,0,0,0,0,0,-9,0,0,0,0,0,74,20858,85,20870,305,305,300,290,4498,316,1910,74,65,1136,3,37629,21048,2235,20858
77799,778,77799,-9,0,0,0,0,0,-9,0,0,0,0,0,74,20855,86,20868,305,305,300,290,4498,315,1911,74,65,1136,3,37629,21047,2336,20855
77899,779,77899,-9,0,0,0,0,0,-9,0,0,0,0,0,74,20853,87,20867,305,305,300,290,4498,315,1911,74,65,1136,3,37629,21046,2437,20853
77999,780,77999,-9,0,0,0,0,0,-9,0,0,0,0,0,74,20850,88,20865,305,305,300,290,4499,315,1911,74,65,1136,3,37629,21045,2539,20850
78099,781,78099,-9,0,0,0,0,0,-9,0,0,0,0,0,74,20848,79,20854,305,305,300,290,4499,315,1911,73,65,1136,3,37629,21044,2641,20848
78199,782,78199,-9,0,0,0,0,0,-9,0,0,0,0,0,74,20845,80,20852,305,305,300,290,4499,315,1912,73,65,1136,3,37629,21043,2743,20845
78299,783,78299,-9,0,0,0,0,0,-9,0,0,0,0,0,74,20842,81,20850,305,305,300,290,4499,315,1912,73,65,1136,3,37629,21042,2846,20842
78399,784,78399,-9,0,0,0,0,0,-9,0,0,0,0,0,74,20839,82,20848,305,305,300,290,4499,314,1912,73,65,1136,3,37629,21041,2949,20839
78499,785,78499,-9,0,0,0,0,0,-9,0,0,0,0,0,74,20836,83,20845,305,305,300,290,4499,314,1913,73,65,1136,3,37629,21040,3053,20836
78599,786,78599,-9,0,0,0,0,0,-9,0,0,0,0,0,74,20833,84,20843,304,304,299,289,4499,314,1913,73,65,1136,3,37629,21039,3156,20833
78699,787,78699,-9,0,0,0,0,0,-9,0,0,0,0,0,74,20830,85,20841,304,304,299,289,4499,314,1913,73,65,1136,3,37629,21038,3261,20830
78799,788,78799,-9,0,0,0,0,0,-9,0,0,0,0,0,75,20826,87,20838,304,304,299,289,4499,314,1914,73,65,1136,3,37629,21037,3365,20826
78899,789,78899,-9,0,0,0,0,0,-9,0,0,0,0,0,75,20823,88,20836,304,304,299,289,4499,314,1914,73,65,1136,3,37629,21036,3470,20823
78999,790,78999,-9,0,0,0,0,0,-9,0,0,0,0,0,75,20819,89,20833,304,304,299,289,4499,313,1914,73,65,1136,3,37629,21035,3576,20819
79099,791,79099,-9,0,0,0,0,0,-9,0,0,0,0,0,75,20816,80,20821,304,304,299,289,4499,313,1915,73,65,1136,3,37629,21034,3682,20816
79199,792,79199,-9,0,0,0,0,0,-9,0,0,0,0,0,75,20812,81,20818,304,304,299,289,4498,313,1915,73,65,1136,3,37629,21033,3788,20812
79299,793,79299,-9,0,0,0,0,0,-9,0,0,0,0,0,75,20808,82,20815,304,304,299,289,4498,313,1916,73,65,1136,3,37629,21032,3895,20808
79399,794,79399,-9,0,0,0,0,0,-9,0,0,0,0,0,75,20804,83,20812,304,304,299,289,4498,313,1916,73,65,1136,3,37629,21031,4002,20804
79499,795,79499,-9,0,0,0,0,0,-9,0,0,0,0,0,75,20800,84,20809,304,304,299,289,4497,312,1916,73,65,1136,3,37629,21030,4110,20800
79599,796,79599,-9,0,0,0,0,0,-9,0,0,0,0,0,75,20796,85,20806,304,304,299,289,4497,312,1917,73,65,1136,3,37629,21029,4219,20796
79699,797,79699,-9,0,0,0,0,0,-9,0,0,0,0,0,75,20791,86,20802,304,304,299,289,4496,312,1917,73,65,1136,3,37629,21028,4328,20791
79799,798,79799,-9,0,0,0,0,0,-9,0,0,0,0,0,75,20787,87,20799,304,304,299,289,4496,312,1917,73,65,1136,3,37629,21027,4437,20787
79899,799,79899,-9,0,0,0,0,0,-9,0,0,0,0,0,75,20782,88,20795,304,304,299,289,4495,312,1918,73,65,1136,3,37629,21026,4548,20782
79999,800,79999,-9,0,0,0,0,0,-9,0,0,0,0,0,75,20778,89,20792,304,304,299,289,4494,312,1918,73,65,1136,3,37628,21025,4658,20778
80099,801,80099,-10,0,0,0,0,0,-10,0,0,0,0,0,75,20773,80,20778,304,304,299,289,4493,311,1919,73,65,1136,3,37628,21024,4770,20773
80199,802,80199,-10,0,0,0,0,0,-10,0,0,0,0,0,75,20768,81,20774,304,304,299,289,4493,311,1919,73,65,1136,3,37628,21023,4882,20768
80299,803,80299,-10,0,0,0,0,0,-10,0,0,0,0,0,75,20763,82,20770,304,304,299,289,4492,311,1919,73,65,1136,3,37628,21022,4994,20763
80399,804,80399,-10,0,0,0,0,0,-10,0,0,0,0,0,75,20758,83,20766,304,304,299,289,4491,311,1920,73,65,1136,3,37628,21021,5108,20758
80499,805,80499,-10,0,0,0,0,0,-10,0,0,0,0,0,75,20753,84,20762,304,304,299,289,4490,311,1920,73,65,1136,3,37628,21020,5222,20753
80599,806,80599,-10,0,0,0,0,0,-10,0,0,0,0,0,75,20747,85,20757,304,304,299,289,4489,311,1921,73,65,1136,3,37627,21019,5337,20747
80699,807,80699,-10,0,0,0,0,0,-10,0,0,0,0,0,75,20742,86,20753,304,304,299,289,4488,311,1921,73,65,1136,3,37627,21018,5452,20742
80799,808,80799,-10,0,0,0,0,0,-10,0,0,0,0,0,75,20736,87,20748,304,304,299,289,4487,310,1921,73,65,1136,3,37627,21017,5569,20736
80899,809,80899,-10,0,0,0,0,0,-10,0,0,0,0,0,75,20731,88,20744,304,304,299,289,4486,310,1922,73,65,1136,3,37627,21016,5686,20731
80999,810,80999,-10,0,0,0,0,0,-10,0,0,0,0,0,75,20725,89,20739,304,304,299,289,4484,310,1922,73,65,1136,3,37626,21015,5804,20725
81099,811,81099,-10,0,0,0,0,0,-10,0,0,0,0,0,76,20719,81,20724,304,304,299,289,4483,310,1923,72,65,1136,3,37626,21014,5922,20719
81199,812,81199,-10,0,0,0,0,0,-10,0,0,0,0,0,76,20713,82,20719,304,304,299,289,4482,310,1923,72,65,1136,3,37626,21013,6042,20713
81299,813,81299,-10,0,0,0,0,0,-10,0,0,0,0,0,76,20707,83,20714,304,304,299,289,4481,310,1924,72,65,1136,3,37626,21012,6162,20707
81399,814,81399,-10,0,0,0,0,0,-11,0,0,0,0,0,76,20700,84,20708,304,304,299,289,4479,309,1924,72,65,1136,3,37625,21011,6284,20700
81499,815,81499,-11,0,0,0,0,0,-11,0,0,0,0,0,76,20694,85,20703,304,304,299,289,4478,309,1924,72,65,1136,3,37625,21010,6406,20694
81599,816,81599,-11,0,0,0,0,0,-11,0,0,0,0,0,76,20687,86,20697,304,304,299,289,4476,309,1925,72,65,1136,3,37625,21009,6529,20687
81699,817,81699,-11,0,0,0,0,0,-11,0,0,0,0,0,76,20681,87,20692,304,304,299,289,4475,309,1925,72,65,1136,3,37625,21008,6653,20681
81799,818,81799,-11,0,0,0,0,0,-11,0,0,0,0,0,76,20674,88,20686,304,304,299,289,4473,309,1926,72,65,1136,3,37624,21007,6779,20674
81899,819,81899,-11,0,0,0,0,0,-11,0,0,0,0,0,76,20667,89,20680,304,304,299,289,4472,309,1926,72,65,1136,3,37624,21007,6905,20667
81999,820,81999,-11,0,0,0,0,0,-11,0,0,0,0,0,76,20660,90,20674,303,303,298,288,4470,309,1927,72,65,1136,3,37624,21006,7032,20660
82099,821,82099,-11,0,0,0,0,0,-11,0,0,0,0,0,76,20653,81,20658,303,303,298,288,4468,308,1927,72,65,1136,3,37623,21005,7161,20653
82199,822,82199,-11,0,0,0,0,0,-11,0,0,0,0,0,76,20646,82,20652,303,303,298,288,4466,308,1928,72,65,1136,3,37623,21004,7290,20646
82299,823,82299,-11,0,0,0,0,0,-11,0,0,0,0,0,76,20638,83,20645,303,303,298,288,4465,308,1928,72,65,1136,3,37623,21003,7421,20638
82399,824,82399,-11,0,0,0,0,0,-12,0,0,0,0,0,76,20631,84,20639,303,303,298,288,4463,308,1928,72,65,1136,3,37622,21002,7553,20631
82499,825,82499,-11,0,0,0,0,0,-12,0,0,0,0,0,76,20623,85,20632,303,303,298,288,4461,308,1929,72,65,1136,3,37622,21001,7686,20623
82599,826,82599,-12,0,0,0,0,0,-12,0,0,0,0,0,77,20615,87,20625,303,303,298,288,4459,308,1929,72,65,1136,3,37621,21000,7820,20615
82699,827,82699,-12,0,0,0,0,0,-12,0,0,0,0,0,77,20607,88,20618,303,303,298,288,4457,308,1930,72,65,1136,3,37621,20999,7955,20607
82799,828,82799,-12,0,0,0,0,0,-12,0,0,0,0,0,77,20599,89,20611,303,303,298,288,4455,307,1930,72,65,1136,3,37621,20998,8092,20599
82899,829,82899,-12,0,0,0,0,0,-12,0,0,0,0,0,77,20591,90,20604,303,303,298,288,4453,307,1931,72,65,1136,3,37620,20997,8231,20591
82999,830,82999,-12,0,0,0,0,0,-12,0,0,0,0,0,77,20583,91,20597,303,303,298,288,4451,307,1931,72,65,1136,3,37620,20996,8370,20583
83099,831,83099,-12,0,0,0,0,0,-12,0,0,0,0,0,77,20574,82,20579,303,303,298,288,4448,307,1932,72,65,1136,3,37619,20995,8511,20574
83199,832,83199,-12,0,0,0,0,0,-13,0,0,0,0,0,77,20565,83,20571,303,303,298,288,4446,307,1932,72,65,1136,3,37619,20995,8654,20565
83299,833,83299,-12,0,0,0,0,0,-13,0,0,0,0,0,77,20557,84,20564,303,303,298,288,4444,307,1933,72,65,1136,3,37618,20994,8798,20557
83399,834,83399,-13,0,0,0,0,0,-13,0,0,0,0,0,77,20548,85,20556,303,303,298,288,4442,307,1933,72,65,1136,3,37618,20993,8943,20548
83499,835,83499,-13,0,0,0,0,0,-13,0,0,0,0,0,77,20539,86,20548,303,303,298,288,4439,307,1934,72,65,1136,3,37617,20992,9090,20539
83599,836,83599,-13,0,0,0,0,0,-13,0,0,0,0,0,77,20529,87,20539,303,303,298,288,4437,306,1934,72,65,1136,3,37617,20991,9239,20529
83699,837,83699,-13,0,0,0,0,0,-13,0,0,0,0,0,77,20520,88,20531,303,303,298,288,4434,306,1935,72,65,1136,3,37616,20990,9389,20520
83799,838,83799,-13,0,0,0,0,0,-13,0,0,0,0,0,78,20510,90,20522,303,303,298,288,4432,306,1935,72,65,1136,3,37616,20989,9541,20510
83899,839,83899,-13,0,0,0,0,0,-13,0,0,0,0,0,78,20501,91,20514,303,303,298,288,4429,306,1936,72,65,1136,3,37615,20988,9695,20501
83999,840,83999,-13,0,0,0,0,0,-14,0,0,0,0,0,78,20491,92,20505,303,303,298,288,4427,306,1936,72,65,1136,3,37615,20988,9851,20491
84099,841,84099,-14,0,0,0,0,0,-14,0,0,0,0,0,78,20481,83,20486,303,303,298,288,4424,306,1937,71,65,1136,3,37614,20987,10009,20481
84199,842,84199,-14,0,0,0,0,0,-14,0,0,0,0,0,78,20471,84,20477,303,303,298,288,4422,306,1937,71,65,1136,3,37614,20986,10168,20471
84299,843,84299,-14,0,0,0,0,0,-14,0,0,0,0,0,78,20460,85,20467,303,303,298,288,4419,306,1938,71,65,1136,3,37613,20985,10329,20460
84399,844,84399,-14,0,0,0,0,0,-14,0,0,0,0,0,78,20450,86,20458,303,303,298,288,4416,305,1938,71,65,1136,3,37613,20984,10493,20450
84499,845,84499,-14,0,0,0,0,0,-15,0,0,0,0,0,78,20439,87,20448,303,303,298,288,4413,305,1939,71,65,1136,3,37612,20983,10658,20439
84599,846,84599,-15,0,0,0,0,0,-15,0,0,0,0,0,78,20428,88,20438,303,303,298,288,4410,305,1940,71,65,1136,3,37612,20983,10826,20428
84699,847,84699,-15,0,0,0,0,0,-15,0,0,0,0,0,78,20417,89,20428,303,303,298,288,4408,305,1940,71,65,1136,3,37611,20982,10996,20417
84799,848,84799,-15,0,0,0,0,0,-15,0,0,0,0,0,79,20406,91,20418,303,303,298,288,4405,305,1941,71,65,1136,3,37611,20981,11168,20406
84899,849,84899,-15,0,0,0,0,0,-15,0,0,0,0,0,79,20395,92,20408,303,303,298,288,4402,305,1941,71,65,1136,3,37610,20980,11343,20395
84999,850,84999,-15,0,0,0,0,0,-15,0,0,0,0,0,79,20383,93,20397,303,303,298,288,4399,305,1942,71,65,1136,3,37609,20979,11520,20383
85099,851,85099,-16,0,0,0,0,0,-16,0,0,0,0,0,79,20372,84,20377,303,303,298,288,4396,305,1942,71,65,1136,3,37609,20979,11699,20372
85199,852,85199,-16,0,0,0,0,0,-16,0,0,0,0,0,79,20360,85,20366,302,302,297,287,4393,305,1943,71,65,1136,3,37608,20978,11881,20360
85299,853,85299,-16,0,0,0,0,0,-16,0,0,0,0,0,79,20348,86,20355,302,302,297,287,4390,304,1943,71,65,1136,3,37608,20977,12065,20348
85399,854,85399,-16,0,0,0,0,0,-17,0,0,0,0,0,79,20335,87,20343,302,302,297,287,4386,304,1944,71,65,1136,3,37607,20976,12253,20335
85499,855,85499,-17,0,0,0,0,0,-17,0,0,0,0,0,79,20323,88,20332,302,302,297,287,4383,304,1944,71,65,1136,3,37606,20975,12443,20323
85599,856,85599,-17,0,0,0,0,0,-17,0,0,0,0,0,80,20310,90,20320,302,302,297,287,4380,304,1945,71,65,1136,3,37606,20975,12636,20310
85699,857,85699,-17,0,0,0,0,0,-17,0,0,0,0,0,80,20297,91,20308,302,302,297,287,4377,304,1946,71,65,1136,3,37605,20974,12832,20297
85799,858,85799,-17,0,0,0,0,0,-18,0,0,0,0,0,80,20284,92,20296,302,302,297,287,4373,304,1946,71,65,1136,3,37604,20973,13031,20284
85899,859,85899,-18,0,0,0,0,0,-18,0,0,0,0,0,80,20271,93,20284,302,302,297,287,4370,304,1947,71,65,1136,3,37604,20972,13233,20271
85999,860,85999,-18,0,0,0,0,0,-18,0,0,0,0,0,80,20258,94,20272,302,302,297,287,4367,304,1947,71,65,1136,3,37603,20972,13438,20258
86099,861,86099,-18,0,0,0,0,0,-19,0,0,0,0,0,80,20244,85,20249,302,302,297,287,4363,304,1948,71,65,1136,3,37602,20971,13647,20244
86199,862,86199,-19,0,0,0,0,0,-19,0,0,0,0,0,80,20230,86,20236,302,302,297,287,4360,303,1948,71,65,1136,3,37602,20970,13859,20230
86299,863,86299,-19,0,0,0,0,0,-19,0,0,0,0,0,80,20216,87,20223,302,302,297,287,4356,303,1949,71,65,1136,3,37601,20969,14075,20216
86399,864,86399,-19,0,0,0,0,0,-19,0,0,0,0,0,81,20202,89,20210,302,302,297,287,4353,303,1950,71,65,1136,3,37600,20969,14294,20202
86499,865,86499,-20,0,0,0,0,0,-20,0,0,0,0,0,81,20187,90,20196,302,302,297,287,4349,303,1950,71,65,1136,3,37599,20968,14517,20187
86599,866,86599,-20,0,0,0,0,0,-20,0,0,0,0,0,81,20173,91,20183,302,302,297,287,4346,303,1951,71,65,1136,3,37599,20967,14745,20173
86699,867,86699,-20,0,0,0,0,0,-20,0,0,0,0,0,81,20158,92,20169,302,302,297,287,4342,303,1951,71,65,1136,3,37598,20967,14976,20158
86799,868,86799,-21,0,0,0,0,0,-21,0,0,0,0,0,81,20142,93,20154,302,302,297,287,4338,303,1952,71,65,1136,3,37597,20966,15211,20142
86899,869,86899,-21,0,0,0,0,0,-21,0,0,0,0,0,81,20127,94,20140,302,302,297,287,4335,303,1952,71,65,1136,3,37597,20965,15451,20127
86999,870,86999,-21,0,0,0,0,0,-22,0,0,0,0,0,82,20111,96,20125,302,302,297,287,4331,303,1953,71,65,1136,3,37596,20965,15696,20111
87099,871,87099,-22,0,0,0,0,0,-22,0,0,0,0,0,82,20095,87,20100,302,302,297,287,4327,303,1954,70,65,1136,3,37595,20964,15945,20095
87199,872,87199,-22,0,0,0,0,0,-23,0,0,0,0,0,82,20079,88,20085,302,302,297,287,4323,303,1954,70,65,1136,3,37594,20963,16198,20079
87299,873,87299,-23,0,0,0,0,0,-23,0,0,0,0,0,82,20063,89,20070,302,302,297,287,4320,302,1955,70,65,1136,3,37594,20963,16457,20063
87399,874,87399,-23,0,0,0,0,0,-24,0,0,0,0,0,82,20046,90,20054,302,302,297,287,4316,302,1955,70,65,1136,3,37593,20962,16721,20046
87499,875,87499,-24,0,0,0,0,0,-24,0,0,0,0,0,82,20029,91,20038,302,302,297,287,4312,302,1956,70,65,1136,3,37592,20961,16991,20029
87599,876,87599,-24,0,0,0,0,0,-24,0,0,0,0,0,83,20012,93,20022,302,302,297,287,4308,302,1957,70,65,1136,3,37591,20961,17265,20012
87699,877,87699,-25,0,0,0,0,0,-25,0,0,0,0,0,83,19994,94,20005,302,302,297,287,4304,302,1957,70,65,1136,3,37590,20960,17546,19994
87799,878,87799,-25,0,0,0,0,0,-25,0,0,0,0,0,83,19976,95,19988,302,302,297,287,4300,302,1958,70,65,1136,3,37590,20960,17833,19976
87899,879,87899,-26,0,0,0,0,0,-26,0,0,0,0,0,83,19958,96,19971,302,302,297,287,4296,302,1958,70,65,1136,3,37589,20959,18126,19958
87999,880,87999,-26,0,0,0,0,0,-27,0,0,0,0,0,83,19940,97,19954,302,302,297,287,4292,302,1959,70,65,1136,3,37588,20958,18425,19940
88099,881,88099,-27,0,0,0,0,0,-27,0,0,0,0,0,83,19921,88,19926,302,302,297,287,4288,302,1960,70,65,1136,3,37587,20958,18731,19921
88199,882,88199,-28,0,0,0,0,0,-28,0,0,0,0,0,84,19902,90,19908,302,302,297,287,4284,302,1960,70,65,1136,3,37586,20957,19044,19902
88299,883,88299,-28,0,0,0,0,0,-29,0,0,0,0,0,84,19883,91,19890,301,301,296,286,4280,302,1961,70,65,1136,3,37586,20957,19364,19883
88399,884,88399,-29,0,0,0,0,0,-29,0,0,0,0,0,84,19863,92,19871,301,301,296,286,4276,302,1961,70,65,1136,3,37585,20956,19692,19863
88499,885,88499,-30,0,0,0,0,0,-30,0,0,0,0,0,84,19843,93,19852,301,301,296,286,4271,302,1962,70,65,1136,3,37584,20956,20028,19843
88599,886,88599,-30,0,0,0,0,0,-31,0,0,0,0,0,85,19823,95,19833,301,301,296,286,4267,301,1963,70,65,1136,3,37583,20955,20372,19823
88699,887,88699,-31,0,0,0,0,0,-31,0,0,0,0,0,85,19802,96,19813,301,301,296,286,4263,301,1963,70,65,1136,3,37582,20954,20724,19802
88799,888,88799,-32,0,0,0,0,0,-32,0,0,0,0,0,85,19781,97,19793,301,301,296,286,4259,301,1964,70,65,1136,3,37581,20954,21085,19781
88899,889,88899,-33,0,0,0,0,0,-33,0,0,0,0,0,85,19759,98,19772,301,301,296,286,4254,301,1965,70,65,1136,3,37580,20953,21455,19759
88999,890,88999,-34,0,0,0,0,0,-34,0,0,0,0,0,85,19737,99,19751,301,301,296,286,4250,301,1965,70,65,1136,3,37580,20953,21836,19737
89099,891,89099,-35,0,0,0,0,0,-35,0,0,0,0,0,86,19715,91,19720,301,301,296,286,4246,301,1966,70,65,1136,3,37579,20952,22226,19715
89199,892,89199,-36,0,0,0,0,0,-36,0,0,0,0,0,86,19693,92,19699,301,301,296,286,4241,301,1966,70,65,1136,3,37578,20952,22626,19693
89299,893,89299,-37,0,0,0,0,0,-37,0,0,0,0,0,86,19670,93,19677,301,301,296,286,4237,301,1967,70,65,1136,3,37577,20951,23038,19670
89399,894,89399,-38,0,0,0,0,0,-38,0,0,0,0,0,86,19646,94,19654,301,301,296,286,4233,301,1968,70,65,1136,3,37576,20951,23461,19646
89499,895,89499,-39,0,0,0,0,0,-39,0,0,0,0,0,87,19622,96,19631,301,301,296,286,4228,301,1968,70,65,1136,3,37575,20951,23896,19622
89599,896,89599,-40,0,0,0,0,0,-40,0,0,0,0,0,87,19598,97,19608,301,301,296,286,4224,301,1969,70,65,1136,3,37574,20950,24344,19598
89699,897,89699,-41,0,0,0,0,0,-41,0,0,0,0,0,87,19573,98,19584,301,301,296,286,4219,301,1970,70,65,1136,3,37573,20950,24805,19573
89799,898,89799,-42,0,0,0,0,0,-43,0,0,0,0,0,88,19548,100,19560,301,301,296,286,4215,301,1970,70,65,1136,3,37573,20949,25280,19548
89899,899,89899,-43,0,0,0,0,0,-44,0,0,0,0,0,88,19522,101,19535,301,301,296,286,4210,301,1971,70,65,1136,3,37572,20949,25770,19522
89999,900,89999,-45,0,0,0,0,0,-45,0,0,0,0,0,88,19496,102,19510,301,301,296,286,4206,301,1972,70,65,1137,3,37571,20948,26275,19496
90099,901,90099,-46,0,0,0,0,0,-47,0,0,0,0,0,88,19469,93,19474,301,301,296,286,4201,301,1972,69,65,1137,3,37570,20948,26796,19469
90199,902,90199,-48,0,0,0,0,0,-48,0,0,0,0,0,89,19442,95,19448,301,301,296,286,4196,301,1973,69,65,1137,3,37569,20948,27334,19442
90299,903,90299,-50,0,0,0,0,0,-50,0,0,0,0,0,89,19414,96,19421,301,301,296,286,4192,300,1973,69,65,1137,3,37568,20947,27889,19414
90399,904,90399,-51,0,0,0,0,0,-52,0,0,0,0,0,89,19385,97,19393,301,301,296,286,4187,300,1974,69,65,1137,3,37567,20947,28464,19385
90499,905,90499,-53,0,0,0,0,0,-54,0,0,0,0,0,90,19356,99,19365,301,301,296,286,4183,300,1975,69,65,1137,3,37566,20946,29058,19356
90599,906,90599,-55,0,0,0,0,0,-55,0,0,0,0,0,90,19327,100,19337,301,301,296,286,4178,300,1975,69,65,1137,3,37565,20946,29674,19327
90699,907,90699,-57,0,0,0,0,0,-57,0,0,0,0,0,90,19296,101,19307,301,301,296,286,4173,300,1976,69,65,1137,3,37564,20946,30311,19296
90799,908,90799,-59,0,0,0,0,0,-60,0,0,0,0,0,91,19265,103,19277,301,301,296,286,4168,300,1977,69,65,1137,3,37563,20945,30972,19265
90899,909,90899,-61,0,0,0,0,0,-62,0,0,0,0,0,91,19234,104,19247,301,301,296,286,4164,300,1977,69,65,1137,3,37562,20945,31658,19234
90999,910,90999,-63,0,0,0,0,0,-64,0,0,0,0,0,91,19201,105,19215,301,301,296,286,4159,300,1978,69,65,1137,3,37561,20945,32370,19201
91099,911,91099,-66,0,0,0,0,0,-67,0,0,0,0,0,92,19168,97,19173,301,301,296,286,4154,300,1979,69,65,1137,3,37560,20944,33110,19168
91199,912,91199,-69,0,0,0,0,0,-70,0,0,0,0,0,92,19134,98,19140,301,301,296,286,4150,300,1979,69,65,1137,3,37560,20944,33879,19134
91299,913,91299,-72,0,0,0,0,0,-72,0,0,0,0,0,93,19100,100,19107,300,300,295,285,4145,300,1980,69,65,1137,3,37559,20944,34680,19100
91399,914,91399,-75,0,0,0,0,0,-75,0,0,0,0,0,93,19064,101,19072,300,300,295,285,4140,300,1981,69,65,1137,3,37558,20944,35515,19064
91499,915,91499,-78,0,0,0,0,0,-79,0,0,0,0,0,93,19028,102,19037,300,300,295,285,4135,300,1981,69,65,1137,3,37557,20943,36386,19028
91599,916,91599,-81,0,0,0,0,0,-82,0,0,0,0,0,94,18990,104,19000,300,300,295,285,4130,300,1982,69,65,1137,3,37556,20943,37295,18990
91699,917,91699,-85,0,0,0,0,0,-86,0,0,0,0,0,94,18952,105,18963,300,300,295,285,4126,300,1983,69,65,1137,3,37555,20943,38245,18952
91799,918,91799,-89,0,0,0,0,0,-90,0,0,0,0,0,95,18913,107,18925,300,300,295,285,4121,300,1983,69,65,1137,3,37554,20942,39239,18913
91899,919,91899,-93,0,0,0,0,0,-94,0,0,0,0,0,95,18873,108,18886,300,300,295,285,4116,300,1984,69,65,1137,3,37553,20942,40280,18873
91999,920,91999,-98,0,0,0,0,0,-99,0,0,0,0,0,96,18831,110,18845,300,300,295,285,4111,300,1985,69,65,1137,3,37552,20942,41372,18831
92099,921,92099,-103,0,0,0,0,0,-104,0,0,0,0,0,96,18789,101,18794,300,300,295,285,4106,300,1985,69,65,1137,3,37551,20942,42518,18789
92199,922,92199,-108,0,0,0,0,0,-109,0,0,0,0,0,97,18745,103,18751,300,300,295,285,4101,300,1986,69,65,1137,3,37550,20942,43724,18745
92299,923,92299,-114,0,0,0,0,0,-115,0,0,0,0,0,97,18700,104,18707,300,300,295,285,4096,300,1987,69,65,1137,3,37549,20941,44993,18700
92399,924,92399,-120,0,0,0,0,0,-121,0,0,0,0,0,98,18654,106,18662,300,300,295,285,4091,300,1987,69,65,1137,3,37548,20941,46331,18654
92499,925,92499,-127,0,0,0,0,0,-128,0,0,0,0,0,98,18606,107,18615,300,300,295,285,4086,300,1988,69,65,1137,3,37547,20941,47744,18606
92599,926,92599,-134,0,0,0,0,0,-135,0,0,0,0,0,99,18557,109,18567,300,300,295,285,4082,300,1989,69,65,1137,3,37546,20941,49238,18557
92699,927,92699,-142,0,0,0,0,0,-143,0,0,0,0,0,100,18506,111,18517,300,300,295,285,4077,300,1989,69,65,1137,3,37545,20941,50821,18506
92799,928,92799,-151,0,0,0,0,0,-152,0,0,0,0,0,100,18453,112,18465,300,300,295,285,4072,300,1990,69,65,1137,3,37544,20941,52501,18453
92899,929,92899,-160,0,0,0,0,0,-162,0,0,0,0,0,101,18399,114,18412,300,300,295,285,4067,300,1991,69,65,1137,3,37543,20940,54288,18399
92999,930,92999,-171,0,0,0,0,0,-172,0,0,0,0,0,102,18343,116,18357,300,300,295,285,4062,300,1991,69,65,1137,3,37542,20940,56191,18343
93099,931,93099,-182,0,0,0,0,0,-184,0,0,0,0,0,103,18285,108,18290,300,300,295,285,4057,300,1992,68,65,1137,3,37541,20940,58223,18285
93199,932,93199,-195,0,0,0,0,0,-197,0,0,0,0,0,103,18224,109,18230,300,300,295,285,4052,300,1993,68,65,1137,3,37540,20940,60397,18224
93299,933,93299,-209,0,0,0,0,0,-212,0,0,0,0,0,104,18162,111,18169,300,300,295,285,4047,300,1993,68,65,1137,3,37539,20940,62730,18162
93399,934,93399,-225,0,0,0,0,0,-228,0,0,0,0,0,105,18096,113,18104,300,300,295,285,4042,300,1994,68,65,1137,3,37538,20940,65238,18096
93499,935,93499,-243,0,0,0,0,0,-245,0,0,0,0,0,106,18028,115,18037,300,300,295,285,4037,300,1995,68,65,1137,3,37537,20940,67943,18028
93599,936,93599,-263,0,0,0,0,0,-265,0,0,0,0,0,107,17957,117,17967,300,300,295,285,4032,300,1995,68,65,1137,3,37536,20940,70869,17957
93699,937,93699,-285,0,0,0,0,0,-288,0,0,0,0,0,108,17883,119,17894,300,300,295,285,4027,300,1996,68,65,1137,3,37535,20940,74043,17883
93799,938,93799,-310,0,0,0,0,0,-314,0,0,0,0,0,109,17806,121,17818,300,300,295,285,4022,300,1997,68,65,1137,3,37534,20940,77499,17806
93899,939,93899,-339,0,0,0,0,0,-343,0,0,0,0,0,110,17725,123,17738,300,300,295,285,4017,300,1997,68,65,1137,3,37533,20940,81276,17725
93999,940,93999,-372,0,0,0,0,0,-376,0,0,0,0,0,111,17639,125,17653,300,300,295,285,4012,300,1998,68,65,1137,3,37532,20940,85420,17639
94099,941,94099,-411,0,0,0,0,0,-415,0,0,0,0,0,112,17549,117,17554,300,300,295,285,4007,300,1999,68,65,1137,3,37531,20940,89988,17549
94199,942,94199,-455,0,0,0,0,0,-459,0,0,0,0,0,114,17454,120,17460,300,300,295,285,4002,300,1999,68,65,1137,3,37530,20940,95046,17454
94299,943,94299,-506,0,0,0,0,0,-511,0,0,0,0,0,115,17353,122,17360,299,299,294,284,3997,300,2000,68,65,1137,3,37529,20940,100677,17353
94399,944,94399,-567,0,0,0,0,0,-573,0,0,0,0,0,117,17247,125,17255,299,299,294,284,3992,300,2001,68,65,1137,3,37528,20940,106983,17247
94499,945,94499,-639,0,0,0,0,0,-646,0,0,0,0,0,119,17132,128,17141,299,299,294,284,3987,300,2001,68,65,1137,3,37527,20940,114092,17132
94599,946,94599,-726,0,0,0,0,0,-733,0,0,0,0,0,120,17010,130,17020,299,299,294,284,3982,300,2002,68,65,1137,3,37526,20940,122163,17010
94699,947,94699,-831,0,0,0,0,0,-839,0,0,0,0,0,122,16879,133,16890,299,299,294,284,3977,300,2003,68,65,1137,3,37525,20940,131402,16879
